Ar
Integration time [ms]:   5.000
Averaging Nr. [scans]: 100
Smoothing Nr. [pixels]: 0
Data measured with spectrometer [name]: 1701237U1
Wave   ;Sample   ;Dark     ;Reference
[nm]   ;[counts] ;[counts] ;[counts] 

173.876;    1.750;   -2.780;   -2.798
174.482;    1.149;   -5.410;  -59.165
175.087;   -1.178;    6.450;  -23.712
175.693;    5.292;    0.490;   32.370
176.298;    0.635;    8.660;   69.717
176.903;    5.740;   -6.900;  -49.284
177.509;    2.100;    1.210;   11.406
178.114;    4.269;   -3.120;    6.531
178.719;   -0.753;   -8.520;  -62.420
179.325;    1.697;   -7.780;  -47.591
179.930;   -1.480;   -6.940;  -35.173
180.535;    7.253;   -1.100;  -24.761
181.140;   -3.357;    0.600;   27.185
181.745;    2.047;    7.490;   85.469
182.351;    0.964;   -3.660;  -38.660
182.956;    2.320;    2.420;   66.529
183.561;   -3.862;   -3.700;    7.015
184.166;    0.907;   21.560;  194.655
184.771;    6.445;   -6.410;  -22.411
185.376;   -0.938;   -7.710;  -43.265
185.981;   -0.238;    7.870;   65.116
186.586;    1.261;    1.790;  -37.836
187.191;    2.473;   -4.840;   -9.027
187.796;   -1.137;    6.600;   29.804
188.400;   -0.751;   -3.370;   15.448
189.005;    2.580;    3.960;    5.133
189.610;   -0.786;   -7.320;  -59.172
190.215;    2.209;  -10.760;  -55.463
190.820;    3.240;  -12.010;  -74.141
191.424;   -0.134;   -9.750;  -41.935
192.029;   -2.980;   -6.750;  -49.172
192.634;   -3.969;  -10.000;  -36.678
193.238;   -2.217;    0.370;   36.335
193.843;   -4.352;   -6.830;  -59.907
194.448;   -2.674;   -4.830;  -21.429
195.052;    1.855;   -5.060;  -19.141
195.657;   -2.156;   -8.490;   -4.174
196.261;   -0.297;   -5.450;   -8.043
196.866;   -2.141;  -10.220;  -55.167
197.470;    3.477;   -1.090;   14.862
198.075;   -7.497;  -14.920;  -66.541
198.679;   -3.703;   -7.320;  -78.662
199.284;    2.432;   -3.720;  -16.629
199.888;   -3.437;   -1.310;   -7.798
200.492;   -1.687;   -5.020;    2.708
201.097;    6.589;    0.640;   62.658
201.701;   -7.809;   -6.350;   -0.964
202.305;    5.995;  -10.130;  -71.285
202.909;   -0.570;    0.190;   21.447
203.514;   -0.398;   -6.380;   -9.343
204.118;   -1.051;   -2.980;   -6.758
204.722;    1.560;    1.440;   53.395
205.326;   -0.373;   -8.560;  -27.252
205.930;    1.466;   -7.400;  -46.177
206.534;    1.343;   -4.430;  -28.565
207.138;   -2.481;   -9.230;  -75.647
207.742;    1.264;   -3.600;    0.422
208.346;   -1.604;   -4.160;  -38.455
208.950;    1.526;   -0.210;   -9.580
209.554;    0.991;   24.130;  271.803
210.158;   -5.076;   -8.250;  -66.105
210.762;   -0.734;   -3.530;  -31.502
211.366;   -2.837;  -12.940;  -79.200
211.970;   -2.421;   -4.990;  -26.432
212.574;    4.682;   -6.120;   -9.889
213.177;   -2.131;  -10.440;  -56.542
213.781;   -2.143;   -9.450;  -67.716
214.385;    1.275;   19.450;  210.838
214.989;    7.149;    0.170;   30.175
215.592;    4.015;   -3.500;  -17.219
216.196;   -8.016;  -14.400;  -75.925
216.800;    0.594;   -7.900;  -57.321
217.403;   -1.364;   -0.740;   24.728
218.007;    2.165;   -5.780;    5.370
218.610;   -1.285;  -11.270;  -76.948
219.214;    2.612;   -8.470;  -54.847
219.817;   -3.810;   18.080;  181.134
220.421;   -2.509;   -9.740;  -73.351
221.024;   -1.042;   -7.630;  -45.878
221.628;   -6.642;  -15.840;  -72.503
222.231;   -5.953;  -14.630;  -92.852
222.834;    1.947;  -10.020;  -50.385
223.438;   -1.443;   -9.880;  -59.469
224.041;   -1.621;   -6.390;   -9.237
224.644;   -5.909;  -12.720;  -42.894
225.248;   -3.404;   -5.070;  -18.017
225.851;   -4.125;   -8.200;  -37.390
226.454;   -6.399;  -10.810;  -38.519
227.057;   -1.644;    3.770;  130.509
227.660;   -2.108;    5.880;  119.902
228.263;   -2.421;   -7.240;    7.137
228.866;   -2.429;   -4.360;  -19.348
229.470;   -7.465;    0.300;   61.495
230.073;   -5.838;   -0.640;  -23.268
230.676;   -3.873;   -1.290;   80.885
231.279;   -1.478;   -1.670;   -2.989
231.882;    1.157;   22.200;  243.218
232.484;    1.538;  -10.900;  -17.337
233.087;   -4.246;   -7.130;  -14.192
233.690;   -2.717;  -11.440;  -61.820
234.293;   -3.913;   -1.230;   79.648
234.896;   -4.656;   -5.910;   -5.038
235.499;  -10.822;   -7.460;  -13.839
236.101;   -0.135;   -8.360;  -59.450
236.704;  -10.843;   -5.610;  -20.751
237.307;   -6.273;   -9.830;  -53.975
237.910;   -4.065;  -10.470;  -79.472
238.512;   -7.015;   -9.880;  -56.993
239.115;    1.445;   -8.820;  -34.604
239.717;   -3.794;  -13.820;  -72.531
240.320;    0.317;  -10.330;  -67.742
240.923;   -1.036;   -0.750;   44.615
241.525;   -5.190;   -7.220;   11.786
242.128;    1.081;   -2.120;   27.007
242.730;   -4.810;   -7.090;  -34.966
243.332;   -5.617;    0.030;    8.067
243.935;   -1.178;   -0.780;   42.544
244.537;   -0.195;   -2.060;   48.529
245.140;   -0.348;  -13.350;  -74.293
245.742;   -1.896;    6.480;   59.030
246.344;   -1.057;  -11.770;  -55.948
246.946;    0.232;  -14.850;  -58.942
247.549;   -3.246;  -11.000;  -71.282
248.151;   -7.009;  -11.730;  -48.124
248.753;   -2.438;   -5.690;   39.503
249.355;   -4.564;   -6.280;  -19.274
249.957;   -5.097;  -11.010;  -69.908
250.559;   -4.586;   -4.080;    3.618
251.161;    1.077;   -8.160;  -13.733
251.764;   -2.620;   -1.600;   44.621
252.366;   -2.559;    1.700;   17.906
252.968;   -6.268;  -13.980;  -28.426
253.570;   -2.785;   -6.800;  -32.438
254.171;   -3.205;    0.420;   12.527
254.773;   -9.678;   -0.570;    7.455
255.375;    0.254;  -14.900;  -59.807
255.977;    0.039;  -11.510;  -45.536
256.579;   -0.772;   -2.780;   46.088
257.181;   -6.011;  -14.930;  -83.159
257.782;   -7.670;   -6.460;  -23.740
258.384;   -4.394;  -16.310;  -63.455
258.986;   -2.194;  -10.670;  -94.471
259.588;   -3.799;  -10.960;  -31.867
260.189;   -1.889;   -6.530;  -65.317
260.791;   -7.753;  -10.630;    6.334
261.392;   -4.050;   10.230;  143.693
261.994;   -6.991;  -11.890;  -80.544
262.596;   -3.423;   -8.450;  -25.090
263.197;   -0.788;   -8.250;  -32.718
263.799;  -10.133;  -10.140;  -76.016
264.400;   -7.764;  -10.670;  -91.814
265.002;   -3.180;   -0.860;   34.745
265.603;   -4.667;   -7.490;  -66.666
266.204;   -2.324;   -6.090;  -14.742
266.806;   -3.287;   -7.250;  -47.201
267.407;   -5.721;  -11.350;  -41.271
268.008;   -2.591;    4.200;  111.643
268.610;   -7.896;  -11.550;  -57.206
269.211;   -9.729;  -18.420;  -81.109
269.812;   -0.068;  -14.320;  -53.850
270.413;    1.671;   -5.180;   18.462
271.014;   -4.096;   -5.700;    1.450
271.615;   -3.272;    0.400;    6.779
272.217;   -0.202;   -6.550;  -50.593
272.818;   -5.853;   -2.710;   55.787
273.419;   -1.380;   -0.910;   55.239
274.020;   -4.780;  -10.490;  -32.901
274.621;   -2.781;   -7.760;  -30.184
275.222;   -7.203;  -18.230;  -73.942
275.823;   -7.857;   -7.510;  -36.305
276.423;   -4.739;  -14.430;  -50.270
277.024;    0.432;  -13.960;  -54.608
277.625;   -6.301;   -9.450;    1.084
278.226;   -2.749;  -10.880;  -24.499
278.827;   -6.316;   -5.760;   10.376
279.427;   -1.804;   -0.070;   88.495
280.028;   -2.080;  -10.900;  -49.022
280.629;   -3.042;  -11.670;  -47.061
281.230;   -8.755;   -1.780;   96.441
281.830;   -8.629;  -10.370;  -57.282
282.431;    6.517;   20.920; 2673.655
283.031;   -5.703;   -2.330;   71.697
283.632;   -7.698;  -14.620;  -59.965
284.233;   -4.559;   -9.810;  -26.708
284.833;   -3.473;   -6.610;   21.841
285.434;   -3.521;    0.600;   45.263
286.034;   -5.557;  -15.180;  -72.515
286.634;   -2.701;   -9.380;  -13.899
287.235;   -2.113;   -9.530;  -57.871
287.835;   -1.851;  -10.680;  -64.944
288.435;   -1.180;   -7.430;  -16.399
289.036;   -1.095;  -12.710;  -86.437
289.636;   -7.821;  -17.980;  -69.132
290.236;  -12.480;   -9.340;  -45.527
290.837;    2.419;  -13.190;  -72.181
291.437;   -3.748;   -5.660;   19.249
292.037;    1.585;   -8.790;  -15.056
292.637;   -4.680;    3.610;   56.088
293.237;   -5.124;  -11.070;    1.350
293.837;   -3.654;   -6.000;  -21.668
294.437;   -4.192;   -0.740;   32.685
295.037;    1.026;   -9.240;  -65.762
295.637;    2.391;   -8.980;  -47.827
296.237;    0.602;   -5.500;  -41.761
296.837;   -2.155;  -14.600;   -9.154
297.437;   -3.665;  -10.780;  -51.156
298.037;   -2.091;  -16.250;  -63.397
298.637;   -7.101;  -17.130;  -61.696
299.237;   -8.315;   -9.140;  -35.230
299.836;   -0.797;   -6.080;   20.837
300.436;   -3.133;   -9.080;    8.803
301.036;   -4.547;  -12.650;  -35.352
301.636;  -10.032;  -17.700;  -42.433
302.235;   -3.664;   -6.290;    3.477
302.835;   -6.143;  -13.590;  -36.949
303.434;   -3.177;  -10.440;  -25.413
304.034;   -8.485;  -18.310;  -28.963
304.634;   -0.015;  -17.790;  -33.691
305.233;   -5.489;  -14.300;  -14.614
305.833;   -2.010;  -11.950;  -30.569
306.432;   -1.801;  -17.040;   40.163
307.032;   -1.753;   -6.920;   90.285
307.631;   -2.741;   -9.320;  110.148
308.230;   -1.417;    1.780;  149.221
308.830;   -4.345;  -12.430;   94.483
309.429;  -10.678;  -22.650;   62.782
310.028;   -5.985;   -8.610;  123.362
310.628;    0.103;  -10.170;  137.608
311.227;   -5.646;  -15.940;   95.810
311.826;   -6.573;   -9.640;  144.979
312.425;   -1.289;  -11.670;   90.013
313.024;   -2.899;   -5.840;  180.463
313.623;   -3.818;  -15.520;   62.818
314.223;   -8.632;   -6.660;  170.660
314.822;   -6.975;   -0.190;  227.011
315.421;   -7.288;   -7.880;  176.013
316.020;   -2.034;  -11.110;  145.209
316.619;   -6.503;   -7.470;  167.601
317.218;   -8.604;  -12.950;  118.010
317.816;   -4.248;  -11.710;  142.319
318.415;   -5.479;   33.090;  567.718
319.014;   -8.333;   -1.930;  179.233
319.613;  -10.906;   -4.960;  156.193
320.212;  -11.611;  -12.570;  116.151
320.811;   -8.679;   -9.880;  161.751
321.409;    3.720;    2.690;  249.631
322.008;   -2.616;  -19.420;   98.677
322.607;   -0.693;   -9.280;  138.412
323.205;   -2.107;  -15.920;  123.396
323.804;   -2.639;  -14.630;   84.866
324.403;   -5.264;  -19.180;  135.189
325.001;   -7.200;  -13.880;  117.591
325.600;   -2.645;  -12.930;  195.644
326.198;   -6.249;  -10.970;  157.754
326.797;   -7.208;  -13.730;  128.540
327.395;   -9.146;   -6.400;  223.216
327.994;   -8.000;    3.340;  331.536
328.592;  -12.092;  -17.210;  176.012
329.190;   -2.801;   50.760;  822.294
329.789;   -5.554;  -16.370;  160.947
330.387;   -2.817;    6.340;  384.620
330.985;   -6.883;  -16.030;  169.947
331.583;   -3.896;  -16.230;  159.703
332.182;   -7.407;  -10.630;  197.361
332.780;   -0.704;    1.440;  327.521
333.378;   -4.277;    0.890;  334.910
333.976;   -7.825;  -19.620;  165.644
334.574;   -4.639;   -8.940;  283.881
335.172;   -7.338;  -12.580;  212.679
335.770;   -1.723;  -10.050;  285.925
336.368;   -2.291;    1.120;  467.182
336.966;   -2.930;  -16.800;  226.963
337.564;   -2.416;  -15.270;  240.583
338.162;   -1.559;   -0.870;  373.544
338.760;   -0.329;   -6.450;  348.839
339.358;   -5.243;  -10.400;  254.084
339.956;    2.495;   -1.640;  315.410
340.554;    3.816;  -11.520;  274.796
341.151;    0.378;  -11.280;  286.643
341.749;    0.643;    3.150;  370.833
342.347;    1.633;  -19.010;  240.798
342.944;   -1.975;   -5.640;  334.310
343.542;    2.333;  -13.200;  263.417
344.140;   -5.215;   -7.360;  228.430
344.737;   -2.467;  -13.350;  283.311
345.335;    1.601;   -0.940;  382.909
345.932;   -2.046;   -7.740;  319.593
346.530;    0.578;  -11.770;  244.884
347.127;   -2.841;   -6.520;  332.307
347.725;    2.200;  -10.030;  304.092
348.322;    3.648;  -10.540;  372.496
348.920;    2.162;    0.240;  362.066
349.517;    3.003;  -10.010;  323.692
350.114;    0.628;    1.090;  467.872
350.712;   -4.428;  -16.890;  307.926
351.309;    1.215;   -4.300;  374.902
351.906;    3.160;  -16.280;  314.583
352.503;    1.268;   -7.980;  378.813
353.100;   -0.344;   -8.820;  383.641
353.698;    6.965;   -5.640;  382.573
354.295;    5.578;   47.730;  936.222
354.892;   10.743;   -5.900;  400.695
355.489;    6.947;  -11.880;  356.600
356.086;   13.118;   -1.870;  460.636
356.683;   12.682;  -17.260;  340.581
357.280;   13.063;  -11.420;  361.722
357.877;   10.578;   -5.000;  437.061
358.474;    6.120;  -20.730;  312.352
359.070;    5.958;   -1.630;  441.865
359.667;    7.792;  -11.350;  355.894
360.264;   10.830;  -17.650;  406.991
360.861;    7.078;  -14.820;  396.940
361.458;    9.569;   -5.320;  467.084
362.054;    6.858;   -6.230;  484.591
362.651;    7.073;  -12.010;  429.581
363.248;    5.920;  -15.860;  373.931
363.844;   13.072;  -17.480;  387.284
364.441;    7.380;  -11.740;  453.636
365.037;   10.842;  -12.760;  432.900
365.634;    9.742;  -14.340;  418.005
366.230;    6.081;  -18.150;  483.051
366.827;   12.616;  -12.670;  477.422
367.423;    3.490;  -14.460;  465.885
368.020;    7.579;  -18.250;  435.871
368.616;    8.972;   -5.750;  553.664
369.213;    9.423;   -6.050;  559.034
369.809;    8.060;   20.390;  855.489
370.405;   10.190;  -21.830;  448.608
371.001;    4.644;  -10.900;  480.509
371.598;   13.619;   -6.400;  532.868
372.194;    7.435;  -16.440;  472.874
372.790;   16.550;  -10.600;  460.605
373.386;    7.727;   -8.150;  556.558
373.982;   12.480;  -12.920;  503.598
374.578;    3.447;  -14.640;  533.116
375.174;    4.316;   -6.470;  566.446
375.770;    8.064;    1.860;  689.563
376.366;    9.750;  -19.430;  468.143
376.962;    7.255;   -8.240;  617.747
377.558;   14.882;   -6.660;  611.420
378.154;   15.361;   -9.690;  555.164
378.750;   13.943;   -6.910;  630.762
379.346;    5.868;  -15.820;  578.667
379.942;   12.977;  -12.960;  626.438
380.537;    7.863;  -13.590;  547.313
381.133;    9.762;  -18.470;  536.995
381.729;   12.607;   -9.190;  590.599
382.325;   16.869;  -19.480;  569.165
382.920;    4.875;  -21.830;  550.666
383.516;   15.113;  -16.250;  586.998
384.111;   13.323;  -17.100;  601.999
384.707;    6.514;  -15.840;  648.979
385.302;   17.723;  -10.560;  740.470
385.898;   17.433;   -2.310;  750.268
386.493;   13.349;  -13.660;  655.366
387.089;   11.043;   -3.690;  831.341
387.684;   13.872;  -17.850;  727.342
388.280;   16.061;  -20.210;  694.390
388.875;   22.527;   26.630; 1156.803
389.470;   15.884;  -16.880;  735.932
390.066;   14.213;   -5.940;  795.666
390.661;   16.206;  -19.990;  681.850
391.256;   15.794;  -15.310;  721.955
391.851;   14.725;  -15.200;  614.047
392.446;   16.550;  -11.250;  613.759
393.041;   34.784;  -15.920;  570.658
393.637;   58.879;  -14.790;  551.315
394.232;   69.927;  -13.000;  642.501
394.827;   66.397;  -19.880;  614.699
395.422;   64.066;   -8.100;  829.449
396.017;   68.745;  -11.350; 1039.421
396.612;   62.592;  -18.570;  957.493
397.206;   57.045;  -15.150; 1011.350
397.801;  107.477; 1518.180;16853.839
398.396;   19.642;    6.480; 1129.267
398.991;   21.450;  -13.980; 1007.102
399.586;   13.630;  -21.490;  876.733
400.180;   18.154;  -16.800;  720.055
400.775;   15.269;  -19.570;  654.041
401.370;   20.505;  -17.880;  649.201
401.965;   18.078;  -19.910;  612.626
402.559;   33.222;  -19.440;  615.758
403.154;   67.137;  -16.360;  633.789
403.748;   88.149;   -8.810;  691.191
404.343;   89.281;  -10.560;  670.546
404.937;   86.998;  -13.670;  672.150
405.532;   81.874;  -26.790;  693.490
406.126;   80.411;   -5.040;  824.019
406.721;   81.402;  -20.480;  779.113
407.315;   47.699;  -16.900;  810.668
407.909;   27.827;  -14.050;  960.425
408.504;   21.414;  -14.640; 1426.859
409.098;   24.853;  -14.320; 2136.942
409.692;   22.678;   -2.900; 2312.560
410.286;   23.091;  -24.840; 2147.155
410.881;   24.623;  -15.220; 2199.210
411.475;   25.406;  -22.520; 2055.573
412.069;   32.207;  -19.980; 1964.006
412.663;   30.327;  -15.560; 1699.271
413.257;   38.505;  -20.430;  949.849
413.851;   97.894;  -25.060;  666.502
414.445;  315.321;   -5.460;  881.362
415.039;  464.912;  -22.840;  660.017
415.633;  478.175;  -16.320;  789.128
416.227;  514.963;  -17.310;  778.794
416.821;  538.199;  -12.850;  853.837
417.415;  604.066;  -13.470;  825.979
418.008;  730.554;  -15.100;  845.683
418.602;  813.046;  -19.610;  804.702
419.196;  823.146;  -18.730;  808.974
419.790;  767.678;  -20.220;  838.402
420.383;  737.657;  -19.620;  785.928
420.977;  710.617;  -20.440;  717.686
421.571;  633.741;  -22.050;  717.553
422.164;  512.297;  -15.670;  747.414
422.758;  286.058;  -19.300;  653.766
423.351;   92.763;  -18.250;  625.412
423.945;   77.940;    2.970;  821.412
424.538;  166.712;  -17.370;  629.737
425.132;  251.722;   -5.910;  741.964
425.725;  363.753;   -7.430;  661.055
426.318;  410.103;  -15.680;  582.061
426.912;  410.473;  -13.690;  674.573
427.505;  405.538;   -6.230;  670.365
428.098;  401.734;    0.320;  705.581
428.692;  407.775;  -23.330;  582.763
429.285;  345.120;  -21.560;  605.482
429.878;  251.637;  -17.160;  674.548
430.471;  173.521;  -16.080;  678.147
431.064;  151.323;  -10.380;  785.664
431.657;  202.293;  -17.930;  935.123
432.250;  279.679;  -19.050; 3230.731
432.843;  271.133;  -14.250; 7588.370
433.436;  257.593;  -18.560; 8982.929
434.029;  252.729;  -20.820; 9157.468
434.622;  246.893;   -8.000; 8965.516
435.215;  246.073;  -15.480; 8934.028
435.808;  213.341;  -20.010; 8621.923
436.401;  126.068;  -19.590; 7162.760
436.994;   77.354;  -24.770; 3408.116
437.586;   49.344;  -27.100; 1017.357
438.179;   39.129;  -13.710;  832.739
438.772;   28.486;  -21.590;  687.126
439.364;   27.226;  -22.080;  690.368
439.957;   31.962;  -11.930;  890.258
440.550;   19.576;  -18.410;  784.013
441.142;   30.987;  -15.910;  898.175
441.735;   21.852;  -11.410;  882.795
442.327;   29.301;  -15.700;  843.743
442.920;   28.674;   -3.850;  947.668
443.512;   27.486;  -22.780;  851.296
444.104;   25.042;   -8.190;  923.036
444.697;   29.582;  -19.960;  800.470
445.289;   25.431;  -22.100;  782.044
445.881;   25.363;  -23.040;  812.074
446.474;   29.625;  -10.760;  862.420
447.066;   25.962;  -29.560;  755.930
447.658;   22.362;  -12.960;  848.386
448.250;   24.161;   -8.710;  912.106
448.843;   20.813;  -20.740;  756.101
449.435;   48.885;  -15.300;  839.622
450.027;   80.345;   -8.160;  880.333
450.619;   99.203;  -17.820;  761.616
451.211;  110.170;  -23.570;  811.858
451.803;  106.970;   -5.130;  909.987
452.395;   99.174;  -22.110;  748.297
452.987;  108.276;  -27.830;  703.859
453.579;   92.286;  -18.290;  696.154
454.170;   57.740;  -24.080;  699.000
454.762;   48.383;   -5.870;  829.770
455.354;   28.948;   -6.200;  921.907
455.946;   26.801;  -24.050;  795.187
456.537;   28.165;  -26.460;  847.237
457.129;   30.230;  -16.240;  963.258
457.721;   38.404;  -18.820;  875.547
458.312;   50.360;  -20.310;  851.308
458.904;   49.912;   -9.840;  966.880
459.496;   53.361;  -14.310;  821.691
460.087;   55.912;  -26.170;  749.948
460.679;   52.181;  -20.450;  681.669
461.270;   55.180;  -13.020;  791.414
461.862;   68.820;  -20.710;  888.577
462.453;   54.603;  -14.230; 1008.522
463.044;   40.323;  -24.620;  948.210
463.636;   50.265;   -8.050; 1096.857
464.227;   44.621;   -5.760; 1068.116
464.818;   44.094;  -19.720; 1009.846
465.409;   43.491;  -19.640;  950.790
466.001;   26.221;  -24.350;  810.714
466.592;   29.237;  -22.810;  752.148
467.183;   33.648;  -21.200;  777.587
467.774;   25.893;  -14.830;  772.771
468.365;   29.121;  -22.420;  764.497
468.956;   54.150;  -13.180;  784.214
469.547;   58.709;  -13.000;  809.561
470.138;   56.458;  -21.050;  689.382
470.729;   59.782;  -10.000;  801.085
471.320;   60.756;  -11.520;  751.603
471.911;   57.680;  -23.650;  682.794
472.502;   49.496;  -22.180;  653.414
473.092;   44.829;  -23.410;  659.815
473.683;   26.485;   -1.260;  840.721
474.274;   33.558;  -19.680;  654.475
474.865;   32.703;  -23.690;  620.798
475.455;   30.626;  -12.730;  744.947
476.046;   31.865;   -5.150;  866.280
476.637;   37.358;  -19.930;  695.401
477.227;   34.583;  -19.420;  745.854
477.818;   35.084;  -18.390;  808.130
478.408;   33.667;  -23.360;  870.931
478.999;   31.595;  -22.000;  969.655
479.589;   30.527;  -19.220;  990.487
480.180;   31.029;  -12.630; 1117.075
480.770;   33.515;  -20.750; 1015.907
481.360;   31.250;  -27.420; 1041.291
481.951;   37.248;  -13.910; 1148.702
482.541;   29.313;  -26.160; 1207.311
483.131;   31.168;  -17.120; 1487.249
483.721;   33.082;  -26.650; 2637.347
484.312;   38.555;  -20.410;25342.849
484.902;   38.096;  -23.030;64475.386
485.492;   37.034;  -20.870;64479.279
486.082;   40.765;  -21.560;64475.396
486.672;   45.223;   -5.660;64479.271
487.262;   48.654;  -19.150;64475.402
487.852;   47.589;  -25.650;64479.251
488.442;   54.462;  -21.780;64475.366
489.032;   53.456;  -17.620;33738.075
489.622;   52.028;  -25.450; 4074.653
490.212;   52.870;  -17.120; 1609.206
490.801;   42.913;  -17.070; 1327.918
491.391;   43.986;  -22.820; 1250.756
491.981;   47.410;  -14.170; 1464.098
492.571;   43.613;  -17.000; 1457.501
493.160;   35.826;  -21.880; 1371.408
493.750;   38.177;  -18.280; 1348.244
494.340;   34.555;  -17.770; 1325.017
494.929;   43.230;  -24.830; 1231.126
495.519;   40.818;  -28.580; 1114.625
496.108;   43.084;  -22.410; 1009.429
496.698;   34.957;  -23.170;  890.767
497.287;   38.335;  -22.340;  820.848
497.876;   41.880;  -12.960;  838.657
498.466;   43.901;   -8.410;  871.943
499.055;   37.289;   -9.300;  902.925
499.645;   36.391;  -23.600;  756.314
500.234;   38.100;  -22.590;  828.183
500.823;   40.729;  -18.620;  777.720
501.412;   31.017;  -20.050;  853.382
502.001;   35.375;  -22.260;  776.960
502.591;   36.100;  -19.090;  846.789
503.180;   38.832;  -24.890;  726.885
503.769;   44.653;  -30.620;  660.719
504.358;   45.461;   -8.080;  774.341
504.947;   44.000;  -22.040;  593.338
505.536;   53.910;  -21.840;  643.249
506.125;   47.946;  -11.250;  817.786
506.714;   42.712;  -23.020;  633.853
507.303;   46.781;  -23.220;  664.277
507.891;   50.929;  -16.880;  642.678
508.480;   45.088;  -25.270;  640.511
509.069;   33.891;  -16.410;  670.333
509.658;   40.857;  -13.850;  658.964
510.246;   37.304;  -23.270;  554.846
510.835;   38.428;  -22.500;  518.926
511.424;   38.818;  -23.530;  489.385
512.012;   37.009;   -0.590;  712.716
512.601;   42.457;  -17.450;  498.495
513.189;   42.876;  -30.550;  460.525
513.778;   42.228;  -26.190;  454.120
514.366;   51.908;  -13.220;  526.164
514.955;   69.942;  -17.580;  518.930
515.543;   67.535;  -18.440;  546.357
516.132;   64.047;  -22.290;  462.361
516.720;   74.968;  -16.110;  524.145
517.308;   85.007;  -23.000;  490.047
517.896;   99.180;  -27.340;  477.752
518.485;   95.532;  -23.930;  466.593
519.073;   79.751;  -22.360;  486.789
519.661;   70.326;   -5.530;  644.124
520.249;   74.503;  -26.090;  418.884
520.837;   77.093;  -20.020;  498.667
521.425;   71.732;  -19.040;  540.855
522.013;   52.312;   -5.100;  657.970
522.601;   52.733;  -17.960;  545.308
523.189;   53.520;  -20.910;  438.129
523.777;   50.493;  -26.480;  415.083
524.365;   51.840;  -21.710;  467.937
524.953;   56.298;  -20.490;  506.709
525.541;   49.348;  -23.080;  487.282
526.129;   39.723;  -23.750;  487.305
526.716;   42.169;  -17.270;  563.626
527.304;   45.454;  -17.080;  555.522
527.892;   41.213;  -19.980;  501.681
528.479;   36.329;  -28.120;  513.325
529.067;   39.779;  -19.780;  572.235
529.655;   34.913;   -6.280;  638.649
530.242;   40.902;  -20.830;  509.434
530.830;   35.948;  -31.280;  424.246
531.417;   39.279;  -16.790;  499.188
532.005;   37.958;  -16.030;  499.560
532.592;   36.964;  -24.180;  509.457
533.179;   40.450;  -18.110;  524.606
533.767;   36.182;   -3.010;  634.423
534.354;   33.301;  -15.120;  503.003
534.941;   41.428;  -23.480;  447.222
535.529;   38.736;  -21.690;  480.227
536.116;   33.154;  -23.220;  414.263
536.703;   37.764;  -26.710;  367.297
537.290;   41.893;  -27.060;  428.264
537.877;   35.110;  -27.050;  462.515
538.464;   31.743;  -24.510;  407.032
539.051;   35.097;  -26.850;  473.399
539.638;   38.553;  -19.450;  499.795
540.225;   33.515;  -19.950;  521.191
540.812;   47.396;   -4.560;  668.439
541.399;   40.868;  -23.000;  496.335
541.986;   41.795;  -25.190;  500.374
542.573;   43.635;  -23.390;  486.515
543.160;   49.658;  -23.940;  455.728
543.746;   56.284;  -17.170;  469.188
544.333;   74.106;  -18.340;  482.430
544.920;   69.117;  -19.650;  472.753
545.506;   61.521;  -24.290;  393.477
546.093;   60.203;  -21.850;  397.664
546.680;   63.115;  -17.850;  458.700
547.266;   61.672;  -27.830;  315.195
547.853;   63.508;  -18.000;  359.988
548.439;   77.200;  -28.130;  325.664
549.025;   83.226;  -19.270;  386.651
549.612;   84.947;  -24.280;  351.814
550.198;   89.327;  -21.180;  393.040
550.785;   84.530;  -16.880;  480.026
551.371;   90.653;  -17.450;  378.919
551.957;   84.655;  -27.520;  351.369
552.543;   58.856;  -27.510;  349.877
553.130;   46.253;  -26.870;  378.518
553.716;   46.023;  -19.060;  431.147
554.302;   78.307;  -15.760;  511.667
554.888;  105.984;  -25.130;  420.132
555.474;  109.804;  -19.220;  458.106
556.060;  122.291;  -21.890;  446.456
556.646;  119.781;  -18.790;  433.202
557.232;  126.219;  -19.620;  406.233
557.818;  126.013;  -25.180;  284.484
558.404;  115.850;  -26.110;  329.805
558.990;  100.797;  -31.440;  352.296
559.576;  125.425;  -30.630;  354.852
560.161;  120.968;  -36.970;  346.449
560.747;  110.515;  -26.240;  368.895
561.333;  120.613;   -9.650;  524.921
561.918;  113.744;  -28.050;  396.151
562.504;  109.688;  -19.350;  463.210
563.090;  101.942;  -24.920;  441.432
563.675;   81.829;  -25.740;  429.453
564.261;   82.376;  -26.260;  485.659
564.846;   74.338;  -21.430;  575.833
565.432;   75.895;  -18.300;  588.524
566.017;   75.964;  -23.650;  602.529
566.603;   80.652;  -23.670;  627.897
567.188;   75.106;  -31.420;  687.957
567.773;   68.032;  -24.410;  792.746
568.359;   55.637;  -20.630;  936.156
568.944;   48.002;  -26.100;  912.792
569.529;   44.338;  -22.090; 1054.821
570.114;   47.878;  -24.230; 1030.882
570.699;   39.668;  -29.380;  971.059
571.284;   32.798;  -22.450; 1067.221
571.870;   33.500;  -26.830; 1100.582
572.455;   41.817;  -25.760; 1240.700
573.040;   39.836;  -29.950; 1173.678
573.625;   42.662;  -28.210; 1086.810
574.209;   51.551;  -10.950; 1356.637
574.794;   46.064;  -23.150; 1390.100
575.379;   55.651;  -27.900; 1388.876
575.964;   52.986;  -28.560; 1366.930
576.549;   52.110;  -29.580; 1300.852
577.134;   33.567;  -17.220; 1434.210
577.718;   37.139;  -32.820; 1519.464
578.303;   34.119;  -22.050; 1645.461
578.888;   43.846;  -29.140; 1620.117
579.472;   38.584;  -24.270; 1863.197
580.057;   32.666;  -19.610; 2241.732
580.641;   36.659;  -29.130; 2299.577
581.226;   33.012;  -25.450; 2308.243
581.810;   36.003;  -12.890; 2482.099
582.395;   39.915;  -19.970; 2334.229
582.979;   39.412;  -24.030; 2294.248
583.564;   31.238;  -23.650; 2219.957
584.148;   38.187;  -18.930; 1878.377
584.732;   47.283;  -26.750; 1561.059
585.317;   45.104;  -13.330; 1532.944
585.901;   43.111;   -2.230; 1690.844
586.485;   45.868;  -22.230; 1381.370
587.069;   68.216;  -30.800; 1522.406
587.653;   98.165;  -12.090; 1818.955
588.237;  105.227;  -24.700; 1796.362
588.821;   95.262;  -29.060; 1751.158
589.405;  125.271;  273.740; 4037.266
589.989;  134.659;  -16.210; 1696.356
590.573;  140.237;  -29.250; 1636.293
591.157;  140.187;   -9.520; 1829.770
591.741;  128.351;  -29.070; 1576.992
592.325;  112.720;  -24.520; 1603.919
592.909;  112.776;  -17.830; 1716.651
593.492;  104.674;  -28.560; 1690.820
594.076;   78.805;  -31.630; 1702.042
594.660;   65.695;  -22.210; 1740.284
595.244;   62.400;  -25.230; 1721.322
595.827;   48.159;  -29.830; 1728.684
596.411;   50.050;  -28.830; 1758.006
596.994;   47.951;  -23.550; 1766.373
597.578;   49.359;  -29.110; 1678.682
598.161;   56.175;  -16.870; 1708.126
598.745;   57.505;  -15.730; 1749.912
599.328;   58.323;  -20.890; 1551.930
599.911;   64.100;  -34.320; 1383.758
600.495;   67.663;  -27.950; 1432.183
601.078;   81.152;  -20.200; 1619.387
601.661;  165.555;  -32.270; 1725.984
602.245;  229.795;  -29.680; 1759.309
602.828;  278.579;  -30.100; 1806.191
603.411;  303.544;  -25.420; 1838.019
603.994;  319.924;  -30.210; 1810.766
604.577;  338.900;  -23.770; 1777.845
605.160;  342.830;  -20.380; 1642.915
605.743;  301.781;  -27.920; 1511.276
606.326;  213.877;  -24.400; 1365.715
606.909;  164.341;  -14.780; 1439.690
607.492;  136.288;  -19.410; 1470.615
608.075;  122.963;  -16.980; 1585.438
608.658;  103.889;  -28.530; 1436.065
609.240;   99.132;  -28.450; 1353.534
609.823;  103.151;  -27.970; 1159.804
610.406;  103.684;  -30.510; 1086.339
610.989;  106.408;  -31.430; 1045.713
611.571;  106.647;  -17.090; 1108.133
612.154;  109.802;  -26.070; 1089.889
612.736;  102.148;  -15.100; 1200.533
613.319;  104.326;  -22.770; 1111.258
613.901;   97.209;  -18.320; 1181.366
614.484;   94.872;  -25.100; 1182.584
615.066;   94.757;  -27.680; 1140.344
615.649;  118.747;  -26.410; 1067.025
616.231;  124.470;  -29.460;  995.792
616.813;  119.030;  -30.780;  858.216
617.396;  117.907;  -25.740;  978.059
617.978;  111.120;  -30.550; 1321.754
618.560;  123.595;  -33.000; 1262.908
619.142;  124.858;  -33.860;  945.310
619.724;  123.122;  -33.230;  846.161
620.306;  118.209;  -16.480;  985.251
620.889;  116.596;  -25.850;  942.365
621.471;  118.650;  -32.980;  910.927
622.053;  123.351;  -27.530; 1013.049
622.635;  121.754;  -25.420;  944.281
623.216;  126.658;  -30.510;  927.423
623.798;  117.341;  -25.410;  908.177
624.380;  105.354;   -9.450; 1106.991
624.962;  103.432;  -26.930;  827.081
625.544;   98.504;  -36.120;  774.005
626.125;  100.824;  -29.130;  756.652
626.707;  100.419;   23.980; 1331.781
627.289;   89.365;  -27.650;  736.187
627.870;   97.094;  -26.900;  726.195
628.452;   93.456;  -28.240;  762.882
629.034;  106.246;  -11.970;  920.238
629.615;  113.545;  -27.170;  720.519
630.197;  114.219;  -33.300;  692.839
630.778;  115.205;  -26.640;  738.105
631.359;  112.217;  -28.050;  757.473
631.941;  113.467;  -26.830;  837.091
632.522;  105.616;  -30.250;  852.933
633.103;   95.428;  -23.370;  814.490
633.685;   84.874;  -29.160;  816.881
634.266;   80.824;  -28.040;  758.304
634.847;   72.477;  -31.920;  782.277
635.428;   74.510;  -32.740;  712.134
636.009;   84.602;  -32.980;  657.015
636.590;   87.290;  -33.350;  674.992
637.171;   95.171;  -34.200;  741.101
637.752;   96.953;  -21.930;  729.287
638.333;  101.619;  -26.480;  747.601
638.914;  106.154;  -23.450;  822.110
639.495;  101.119;  -25.520;  768.080
640.076;  130.735;  -36.920;  705.716
640.657;  179.789;  -31.660;  694.933
641.238;  191.624;  -22.690;  889.834
641.818;  180.128;  -28.350;  900.117
642.399;  186.712;  -21.800;  911.134
642.980;  177.226;  -28.030;  915.268
643.560;  171.201;  -24.220;  998.584
644.141;  155.535;  -26.450; 1125.968
644.721;  111.109;  -24.400; 1181.368
645.302;   80.343;  -21.820; 1323.518
645.882;   73.508;  -26.410; 1349.619
646.463;   68.912;  -27.020; 1489.419
647.043;   75.436;  -34.760; 1643.269
647.624;   67.820;  -14.720; 2108.886
648.204;   67.455;  -20.470; 2331.253
648.784;   65.949;  -18.650; 2585.236
649.365;   63.883;  -24.680; 2688.370
649.945;   58.997;  -31.150; 2831.320
650.525;   59.122;  -31.640; 2966.870
651.105;   57.366;  -34.880; 3180.204
651.685;   52.340;  -25.220; 3610.704
652.265;   53.634;  -24.960; 4219.521
652.845;   56.919;  -33.930; 4966.304
653.425;   61.533;  -26.760; 6646.188
654.005;   62.107;  -28.080;12772.421
654.585;   58.771;  -36.920;64475.405
655.165;   48.176;  -26.590;64479.272
655.745;   52.430;  -28.010;64475.405
656.325;   56.334;  -29.260;64479.272
656.905;   49.378;  -30.700;64475.406
657.484;   46.953;  -13.620;64479.273
658.064;   46.047;  -38.330;64475.406
658.644;   55.951;  -23.210;64479.273
659.223;   61.335;  -33.790;64475.407
659.803;   72.440;  -30.750;64479.273
660.382;   69.554;  -36.360;48390.974
660.962;   71.318;  -36.360;43458.707
661.541;   63.442;  -34.780;41633.541
662.121;   74.547;  -30.050;40650.124
662.700;   73.421;  -31.650;29005.774
663.280;   63.225;  -27.360;12694.375
663.859;   42.789;  -26.850; 4924.775
664.438;   46.884;  -22.180; 5802.692
665.017;   54.048;  -30.830; 6133.192
665.597;   70.142;  -31.880; 2516.509
666.176;  173.416;  -26.810; 2572.859
666.755;  249.191;  -12.730; 2704.376
667.334;  262.705;  -32.540; 1707.876
667.913;  268.629;    2.060; 2222.126
668.492;  267.283;  -17.360; 1407.393
669.071;  261.998;  -21.970; 1304.543
669.650;  229.212;  -34.700; 1042.544
670.229;  195.546;  -29.080;  954.910
670.808;   94.090;  -29.320;  876.111
671.387;   54.685;  -30.940;  757.361
671.965;   50.829;  -27.380;  752.328
672.544;   46.453;  -26.290;  731.061
673.123;   51.817;  -22.840;  720.428
673.702;  180.352;  -25.520;  632.862
674.280;  295.406;  -19.520;  668.462
674.859;  312.590;  -23.660;  553.495
675.437;  319.834;  -32.940;  566.512
676.016;  319.089;  -27.050;  564.779
676.594;  316.323;  -26.850;  595.163
677.173;  301.317;  -28.120;  525.630
677.751;  248.891;  -25.520;  510.430
678.330;  115.556;  -34.880;  460.013
678.908;   54.310;  -34.940;  432.414
679.486;   44.294;  -28.450;  487.964
680.065;   31.768;  -29.190;  440.281
680.643;   32.933;  -32.540;  427.014
681.221;   37.167;  -37.200;  443.498
681.799;   44.861;  -24.140;  459.981
682.377;   40.325;  -30.470;  491.965
682.955;   44.160;  -19.090;  455.532
683.533;   50.284;  -27.600;  420.482
684.111;   51.638;  -26.810;  385.432
684.689;   55.502;  -31.930;  334.266
685.267;  110.057;  -19.140;  437.932
685.845;  244.061;  -36.450;  289.349
686.423;  295.905;  -24.510;  287.316
687.001;  322.509;  -26.140;  307.416
687.579;  349.024;  -32.230;  262.150
688.156;  343.788;  -38.870;  209.300
688.734;  354.082;  -30.240;  239.400
689.312;  337.966;  -18.980;  348.184
689.889;  242.511;  -21.970;  308.601
690.467;  149.305;  -17.160;  398.568
691.044;  124.249;  -32.540;  250.934
691.622;  128.583;  -29.370;  321.701
692.199;  175.948;  -37.220;  173.452
692.777;  220.612;  -24.220;  301.285
693.354;  279.496;  -25.550;  226.885
693.932;  382.480;  -37.900;  149.519
694.509; 1911.515;  -34.220;  110.819
695.086; 8876.209;  -37.360;  152.969
695.663;12825.803;  -37.460;   92.986
696.241;13300.408;  -41.210;   72.220
696.818;13379.532;  -33.290;  108.987
697.395;13275.356;  -37.150;  102.520
697.972;12754.800;  -29.430;  121.737
698.549;11991.805;  -33.850;   87.404
699.126; 8328.159;  -35.350;   65.204
699.703; 2181.903;  -35.030;   59.104
700.280;  441.987;  -35.590;  108.054
700.857;  254.582;  -36.310;  108.171
701.434;  283.986;  -32.930;   82.338
702.010;  329.390;  -27.400;  131.322
702.587;  333.684;  -24.190;  132.722
703.164;  350.379;  -34.250;   98.622
703.741;  374.753;  -29.750;  122.472
704.317;  522.757;  -20.030;  195.323
704.894; 3165.921;  -31.790;   83.673
705.471; 8165.796;  -29.770;   99.173
706.047; 9695.280;  -25.830;  129.106
706.624; 9874.934;  -38.630;   28.090
707.200; 9873.978;  -28.590;   51.890
707.776; 9794.483;  -38.580;   10.774
708.353; 9278.607;  -32.590;   28.557
708.929; 8479.491;  -24.640;  105.424
709.506; 4379.215;  -33.420;   25.708
710.082;  894.840;  -39.220;   12.491
710.658;  288.974;  -22.890;  129.475
711.234;  200.328;  -32.330;   72.575
711.810;  179.332;  -35.170;   10.475
712.387;  184.707;  -24.490;  148.125
712.963;  515.741;  -32.490;   13.476
713.539;  978.815;  -32.410;   57.159
714.115; 1101.509;  -37.410;  -13.874
714.691; 1124.884;  -41.160;  -21.440
715.267; 1116.778;  -34.030;   22.710
715.842; 1092.482;  -29.270;   86.577
716.418; 1040.086;  -32.240;   72.777
716.994;  919.531;  -34.070;   77.894
717.570;  463.635;    5.990;  502.411
718.146;  148.389;  -37.510;   68.661
718.721;  104.903;  -22.750;  183.778
719.297;  108.088;  -36.710;   59.611
719.873;  119.512;  -33.010;   50.511
720.448;  118.566;  -42.980;   25.062
721.024;  114.270;  -31.910;   93.128
721.599;  120.005;  -39.680;   34.395
722.175;  117.519;  -33.930;   52.396
722.750;  117.073;  -32.420;   66.929
723.325;  105.117;  -39.520;   62.479
723.901;   93.822;  -28.400;  190.563
724.476;  107.016;  -30.320;  195.013
725.051;  216.230;  -32.070;  201.813
725.627; 1280.604;  -27.510;  291.197
726.202; 2362.789;  -30.550;  276.447
726.777; 2606.923;  -37.450;  198.097
727.352; 2677.057;  -20.080;  351.614
727.927; 2666.771;  -37.550;  164.648
728.502; 2584.976;  -15.430;  379.614
729.077; 2473.960;  -35.750;  224.548
729.652; 2115.484;  -16.530;  384.415
730.227;  949.138;  -35.070;  186.798
730.802;  308.523;  -37.060;  133.482
731.377;  215.367;  -24.590;  271.282
731.951;  209.821;  -22.110;  300.666
732.526;  205.665;  -31.790;  124.083
733.101;  216.080;  -39.200;   69.649
733.676;  251.234;  -32.670;  108.883
734.250;  293.098;  -32.440;  153.683
734.825;  315.192;  -33.840;  140.433
735.399;  438.177;  -35.260;  123.534
735.974;  788.641;  -28.110;  195.617
736.548; 4925.745;  -29.720;  208.501
737.123;13049.259;  -36.090;  108.484
737.697;15790.804;  -42.980;   61.734
738.272;15940.988;  -35.980;   74.001
738.846;16037.672;  -36.300;   50.135
739.420;15821.106;  -36.390;   39.585
739.994;15146.481;  -30.880;   79.819
740.569;13750.725;  -32.330;   38.669
741.143; 7511.249;  -36.930;   61.819
741.717; 1687.793;  -37.980;   20.903
742.291;  602.298;  -42.290;    4.803
742.865;  454.342;  -34.130;   40.253
743.439;  420.116;  -34.820;   68.570
744.013;  399.690;  -29.150;   79.837
744.587;  392.545;  -29.290;  159.670
745.161;  390.419;  -25.140;  195.970
745.735;  403.643;  -34.860;  139.971
746.308;  407.477;  -33.030;  170.554
746.882;  426.052;  -43.160;   98.138
747.456;  533.426;  -29.850;  183.955
748.030; 1008.630;  -36.340;   95.121
748.603; 7382.024;  -30.440;  132.838
749.177;17721.609;  -40.030;   78.239
749.751;26555.733;  -26.520;  217.855
750.324;34474.307;  -41.040;   38.356
750.898;36059.261;  -34.550;   87.606
751.471;35583.606;  -21.720;  241.189
752.044;34769.330;  -32.180;  150.756
752.618;32362.134;  -41.570;   90.223
753.191;22995.428;  -35.880;  146.807
753.764;14297.033;  -41.970;  100.540
754.338; 5984.377;  -20.790;  255.524
754.911; 1402.651;  -34.010;  151.674
755.484;  666.385;  -25.950;  186.174
756.057;  536.490;  -23.510;  214.308
756.630;  486.974;  -21.270;  246.308
757.203;  459.158;  -36.990;   39.758
757.776;  454.893;  -36.310;   44.508
758.349;  457.677;  -35.740;  131.642
758.922;  478.391;  -32.170;  198.159
759.495;  515.785;  -34.870;  116.442
760.068;  609.990;  -34.560;  136.326
760.641;  834.574;  -44.020;  102.443
761.214; 2333.728;  -37.330;  133.609
761.786;19723.652;  -40.170;   69.726
762.359;40826.647;  -33.430;  100.643
762.932;45333.041;  -36.450;   18.593
763.504;46323.525;  -40.730;   25.477
764.077;46602.039;  -36.450;   46.977
764.649;45390.704;  -27.050;   65.244
765.222;43726.248;  -33.970;   49.661
765.794;38453.472;  -31.010;   58.894
766.367;17143.286;  -37.940;   81.928
766.939; 3308.541;  -32.350;   88.178
767.511; 1045.655;  -34.440;   86.712
768.084;  683.859;  -31.270;  157.412
768.656;  580.713;  -31.810;  156.595
769.228;  568.178;  -28.670;  134.446
769.800;  639.222;  -38.370;   33.963
770.373; 2831.346;  -29.530;   71.879
770.945;10870.940;  -33.780;   68.213
771.517;15736.685;  -34.450;   31.446
772.089;16493.119;  -36.270;   59.947
772.661;16478.893;  -32.490;   99.030
773.233;16189.617;  -33.040;  107.730
773.805;15745.932;  -31.630;   66.214
774.376;14736.626;  -35.700;   40.881
774.948;10358.810;  -22.940;  153.848
775.520; 3113.324;  -32.830;  363.265
776.092;  726.719;  -38.130;  851.531
776.663;  394.013;  -34.930;  956.715
777.235;  299.677;  -25.030; 1038.699
777.807;  257.791;  -24.770; 1108.199
778.378;  233.676;  -28.970; 1025.799
778.950;  207.100;  -29.660; 1008.666
779.521;  196.004;  -28.530;  888.066
780.093;  175.088;  -22.200;  667.566
780.664;  160.813;  -29.700;  146.000
781.235;  151.827;  -21.710;  143.000
781.807;  151.111;  -35.540;    7.417
782.378;  147.565;  -35.390;   13.667
782.949;  135.010;  -34.690;  -23.599
783.521;  140.974;  -40.800;  -36.516
784.092;  133.088;  -27.910;   -7.499
784.663;  138.492;  -24.550;   43.618
785.234;  142.887;  -37.720;  -75.365
785.805;  145.981;  -40.540;  -24.698
786.376;  154.695;  -31.230;   22.252
786.947;  162.049;  -31.740;    1.302
787.518;  180.124;  -37.110;  -65.831
788.089;  195.818;  -39.130;  -59.431
788.660;  205.492;  -38.200;  -74.164
789.230;  204.316;  -30.780;   53.820
789.801;  211.721;  -37.230;  -18.614
790.372;  222.375;  -44.690;  -63.147
790.943;  241.399;  -18.050;  139.637
791.513;  271.593;  -41.060;  -32.313
792.084;  335.738;  -39.690;  -69.879
792.654; 1260.112;  -27.880;   36.121
793.225; 6563.386;  -31.870;   55.254
793.795;10842.990;  -36.750;  -19.279
794.366;11714.785;  -29.330;   15.538
794.936;11788.269;  -23.660;  120.155
795.507;11871.773;  -27.670;   47.055
796.077;11541.767;  -24.370;   78.522
796.647;10999.602;  -36.570;  -25.078
797.217; 8686.416;  -34.830;  -13.561
797.788; 3448.480;   -8.610;  173.806
798.358; 1213.654;  -37.240;   -5.711
798.928; 3095.019;  -41.010;  -38.477
799.498; 7350.893;  -41.370;  -31.277
800.068;13569.487;  -40.620;  -21.743
800.638;16468.861;  -42.930;  -59.160
801.208;17171.976;  -28.930;   35.590
801.778;17044.040;  -33.600;   -0.693
802.348;16659.224;  -35.150;  -56.259
802.917;15594.198;  -34.140;  -11.592
803.487;12152.313;  -35.540;  -57.525
804.057; 7352.677;  -40.780;  -39.575
804.627; 2338.421;  -40.230;  -55.375
805.196;  813.645;  -34.020;   14.442
805.766;  596.960;  -39.300;  -53.141
806.335;  564.594;  -38.030;  -55.108
806.905;  575.148;  -28.520;  -10.324
807.475;  671.492;  -41.060;  -82.141
808.044; 1152.067;  -34.870;   19.893
808.613; 5923.581;  -38.950;  -63.724
809.183;12875.605;  -34.300;  -42.473
809.752;27582.149;  -41.190;  -49.823
810.321;44655.194;  -34.630;  -13.990
810.891;48798.328;  -28.520;   20.227
811.460;49598.892;  -34.730;  -18.089
812.029;48731.696;  -33.890;  -20.189
812.598;47166.531;  -38.010;  -62.872
813.167;40590.475;  -40.130;  -19.889
813.736;32406.809;  -27.850;   97.895
814.305;16111.733;  -32.710;   -9.788
814.874; 3644.458;  -30.070;   28.962
815.443; 1065.652;  -40.940;  -60.654
816.012;  625.816;  -20.730;   60.529
816.581;  467.011;  -36.940;  -93.254
817.150;  390.535;  -28.780;   53.046
817.718;  347.019;  -38.150;  -41.170
818.287;  314.363;  -26.930;   20.697
818.856;  276.068;  -33.410;   11.130
819.424;  263.852;  -30.570;   -5.336
819.993;  248.476;  -37.230;  -53.436
820.562;  237.470;  -39.250;  -82.303
821.130;  237.025;  -27.540;   34.764
821.698;  229.039;  -39.290;  -76.302
822.267;  232.903;  -40.430;  -24.919
822.835;  232.167;  -34.570;  -21.002
823.404;  242.172;  -42.370;  -98.002
823.972;  334.626;  -25.110;   85.465
824.540; 2040.060;  -34.130;  -46.901
825.108; 5597.494;  -42.120;  -72.134
825.677; 7006.169;  -16.910;  178.766
826.245; 7310.533;  -30.670;  -20.084
826.813; 7424.677;  -47.430;  -67.384
827.381; 7344.431;  -37.610;  -80.083
827.949; 7023.986;  -42.560;  -66.650
828.517; 6446.400;  -35.630;  -31.750
829.085; 4025.204;  -34.300;  -51.783
829.653; 1169.328;  -38.470;  -60.733
830.220;  334.683;  -33.230;   15.668
830.788;  207.027;  -43.900;  -97.316
831.356;  179.401;  -35.080;  -46.282
831.924;  170.895;  -21.750;  128.002
832.491;  164.430;  -37.250;  -45.798
833.059;  169.494;  -36.250;  -10.565
833.627;  176.358;  -34.000;  -14.665
834.194;  190.322;  -38.470;  -50.998
834.762;  187.667;  -44.570;  -34.781
835.329;  202.951;  -33.380;  -53.397
835.897;  218.755;  -41.910;  -62.497
836.464;  234.619;  -32.990;  -18.847
837.031;  256.404;  -42.230;  -34.997
837.599;  312.568;  -43.660;  -75.896
838.166;  433.182;  -32.110;   19.737
838.733; 2083.106;  -34.570;   25.554
839.300; 8483.791;  -39.840;  -36.046
839.867;12829.825;  -32.050;   21.454
840.434;16208.109;  -42.340;  -73.029
841.001;24608.693;  -32.450;    1.771
841.568;29155.098;  -34.100;  -20.162
842.135;29846.562;  -45.080;  -70.311
842.702;29076.396;  -32.750;  134.822
843.269;25957.870;  -36.770;  380.806
843.836;19049.395;  -34.860;  450.922
844.403;15302.549;  -35.530;  479.606
844.970;10708.173;  -41.660;  467.023
845.536; 3645.737;  -37.440;  489.623
846.103;  849.702;  -37.580;  467.907
846.670;  390.286;  -39.590;  426.840
847.236;  280.000;  -46.210;  230.524
847.803;  235.974;  -39.570;   46.474
848.369;  206.649;  -37.450;  -16.459
848.936;  200.483;  -30.250;   65.308
849.502;  233.017;  -19.280;  119.941
850.069;  953.311;  -37.360;  -25.325
850.635; 3597.236;  -30.270;   20.592
851.201; 5239.390;  -42.730;  -72.208
851.767; 5583.844;  -43.890;  -62.141
852.334; 5710.318;  -27.270;  105.559
852.900; 5616.853;  -38.120;  -14.708
853.466; 5461.747;  -24.900;  123.793
854.032; 5112.631;  -37.440;  -14.974
854.598; 3816.905;  -29.910;  101.893
855.164; 1396.910;  -22.030;   75.027
855.730;  330.134;  -34.420;   13.543
856.296;  136.128;  -29.410;  101.877
856.862;   88.702;  -36.650;  -22.406
857.428;   74.087;  -22.120;   96.061
857.993;   62.621;  -40.950;  -71.522
858.559;   56.205;  -40.860; -103.689
859.125;   61.739;  -40.660;  -52.705
859.690;   61.064;  -39.240;  -67.688
860.256;   57.468;  -42.380; -106.055
860.822;   64.992;  -36.830;  -48.021
861.387;   58.606;  -37.170;  -12.838
861.953;   63.401;  -37.880;  -61.354
862.518;   60.655;  -24.400;   28.246
863.083;   50.499;  -39.470;  -73.437
863.649;   43.093;  -28.280;    5.663
864.214;   43.908;  -35.580;  -68.937
864.779;  202.032;  -26.670;   49.313
865.345;  660.446;  -14.980;  224.480
865.910;  921.620;  -35.960;  -13.020
866.475;  955.505;  -47.280;  -65.319
867.040;  982.619;  -32.340;   17.781
867.605;  955.223;  -44.520;  -86.186
868.170;  931.357;  -42.950;  -45.469
868.735;  875.692;  -36.790;  -53.635
869.300;  621.376;  -39.170;  -58.685
869.865;  218.070;  -38.110;  -72.835
870.430;   49.564;  -45.850; -115.151
870.995;   21.649;  -44.640; -113.201
871.559;    7.513;  -33.450;   17.916
872.124;    3.177;  -36.940;  -33.184
872.689;    5.011;  -43.530;  -83.884
873.253;    3.816;  -35.340;  -29.067
873.818;    6.420;  -39.820;  -77.633
874.382;    4.250;  -31.910;   38.817
874.947;   11.000;  -34.640;   -4.383
875.511;   11.350;  -39.190;   -1.483
876.076;    9.010;  -41.570;  -80.100
876.640;   12.210;  -44.850; -107.600
877.205;   10.250;  -39.710;  -74.667
877.769;   10.410;  -44.470;  -19.333
878.333;   12.750;  -45.490;  -61.400
878.897;    3.390;  -38.180;   -6.050
879.461;    1.430;  -34.610;   18.050
880.026;    5.000;  -25.530;  102.750
880.590;   -8.130;  -41.540;  -20.800
881.154;   -9.850;  -31.620;   62.533
881.718;   -0.830;  -37.680;  -38.383
882.282;   -6.770;  -33.770;   -6.650
882.846;   -7.970;  -37.990;  -58.367
883.409;  -13.510;  -30.980;  -49.067
883.973;   -3.660;    7.290;  391.800
884.537;   -2.910;  -39.000;  -32.717
885.101;   -7.920;  -42.300; -121.467
885.664;   -5.380;  -28.260;   58.900
886.228;   -9.620;  -36.710;  -53.833
886.792;   -7.170;  -35.110;   11.550
887.355;   -4.870;  -31.810;   12.500
887.919;  -12.270;  -44.780;  -62.433
888.482;   -8.200;  -44.430;  -49.167
889.046;  -17.310;  -41.960;  -42.367
889.609;   -9.940;  -33.170;   37.367
890.172;  -15.520;  -44.570;  -28.950
890.736;  -13.580;  -37.730;   20.750
891.299;  -14.000;  -43.180;  -28.700
891.862;  -13.120;  -44.550;  -69.900
892.425;  -15.590;  -42.150;  -87.833
892.988;  -13.260;  -34.890;  -23.700
893.552;  -12.000;  -44.700; -109.433
894.115;   -8.090;  -36.800;  -61.583
894.678;  -14.140;  -34.520;  -18.367
895.241;  -15.340;  -25.360;   75.417
895.803;  -14.600;  -42.490;  -74.633
896.366;   -5.250;  -38.050;  -52.867
896.929;   -9.300;  -42.140;  -29.033
897.492;   -7.550;  -39.410;  -57.717
898.055;   -8.200;  -32.520;    9.150
898.617;   -6.330;  -28.320;   64.067
899.180;  -11.830;  -45.860;  -83.067
899.743;   -6.870;  -18.520;  143.183
900.305;  -10.930;  -41.560;  -80.017
900.868;  -10.270;  -41.630;  -82.900
901.430;   -4.560;  -48.900;  -98.950
901.993;   -2.370;  -45.820;  -66.950
902.555;    2.920;  -36.690;   -6.767
903.117;    8.970;  -16.160;  174.200
903.680;    5.640;  -38.680;  -26.717
904.242;   20.340;  -34.470;  -41.000
904.804;   25.030;  -40.750;  -47.000
905.366;   23.020;  -38.200;  -93.283
905.929;   28.280;  -33.520;   17.617
906.491;   35.600;  -36.040;  -12.067
907.053;   39.900;  -43.880;  -95.117
907.615;   46.920;  -38.570;  -78.567
908.177;   61.470;  -32.520;   86.767
908.739;   80.690;  -38.740;  -33.350
909.300;  113.960;  -41.290;  -80.333
909.862;  324.830;  -39.010;  -56.967
910.424; 2870.690;  -40.120;  -64.967
910.986; 7068.530;  -27.250;   50.950
911.547; 8944.060;  -43.920;  -56.033
912.109; 9312.670;  -39.510;  -35.083
912.671; 9512.240;  -34.870;  -17.033
913.232; 9382.620;  -46.520; -108.250
913.794; 8964.370;  -41.250;  -76.383
914.355; 8288.600;  -35.030;   10.083
914.917; 5184.290;  -34.270;    1.383
915.478; 1635.190;  -37.730;  -23.967
916.039;  384.810;  -25.390;  112.817
916.601;  148.740;  -38.250;  -37.450
917.162;   89.480;  -44.360;  -56.983
917.723;   80.800;  -44.150;  -68.317
918.284;   97.340;  -45.040;  -88.600
918.845;   99.930;  -26.500;   28.717
919.407;  100.260;  -37.890;  -10.717
919.968;  146.520;  -41.900; -103.100
920.529;  645.070;  -44.530;  -76.117
921.090; 1635.950;  -29.190;   48.117
921.650; 2147.380;  -45.210; -114.017
922.211; 2251.920;  -38.080;  -96.650
922.772; 2196.300;  -44.290; -100.067
923.333; 2188.350;  -40.830;  -88.000
923.894; 2075.970;  -41.540;  -38.917
924.454; 1926.520;  -50.280; -100.267
925.015; 1270.070;  -42.190;  -21.100
925.576;  429.300;  -40.410;  -19.200
926.136;   97.140;  -50.450;  -35.517
926.697;   29.160;  -47.950;  -30.067
927.257;   22.410;  -29.680;  120.883
927.818;   28.900;  -35.870;  -17.900
928.378;   19.490;  -43.730;  -39.083
928.938;   22.590;  -46.510;  -60.217
929.499;   24.830;  -43.660;  -39.700
930.059;   17.490;  -43.910; -125.750
930.619;   15.580;  -50.220; -115.167
931.179;    7.030;  -33.530;    4.150
931.739;    1.760;  -52.110; -106.183
932.299;   -6.700;  -36.670;  -16.583
932.859;   -6.600;  -44.680;  -78.017
933.419;   21.250;  -38.750;  -48.250
933.979;   99.320;  -34.340;    3.767
934.539;  146.330;  -40.200;  -59.250
935.099;  165.090;  -37.010;  -48.500
935.659;  162.890;  -45.870; -121.267
936.219;  157.250;  -43.650;  -60.150
936.778;  149.060;  -45.440; -114.817
937.338;  140.260;  -40.030;  -37.217
937.898;   98.070;  -38.160;  -24.000
938.457;   28.640;  -51.480; -137.233
939.017;   -0.190;  -37.670;  -65.783
939.576;  -14.610;  -43.320; -104.000
940.136;  -17.720;  -48.790;  -75.400
940.695;  -20.650;  -32.890;   52.267
941.254;  -17.240;  -44.640;  -93.217
941.814;  -21.430;  -41.560;  -65.550
942.373;  -22.340;  -37.990;    5.650
942.932;  -29.930;  -46.740; -109.167
943.491;  -22.180;  -46.360;  -94.000
944.051;  -19.170;  -50.550; -134.117
944.610;  -19.300;  -37.700;  -17.267
945.169;  -25.730;  -46.300;  -76.350
945.728;  -17.390;  -43.790;  -83.683
946.287;  -25.000;  -40.480;  -82.400
946.846;  -24.010;  -42.650; -127.117
947.404;  -24.980;  -46.450; -126.267
947.963;  -25.190;  -42.820;   10.883
948.522;  -23.920;  -42.720;  -89.250
949.081;  -24.430;  -45.140;  -77.600
949.639;  -20.230;  -26.350;  109.800
950.198;  -23.440;  -43.820;  -52.933
950.757;  -23.800;  -31.150;   -7.233
951.315;  -22.570;  -43.230;  -76.883
951.874;  -26.340;  -40.830;  -88.550
952.432;  -24.460;  -35.940;   19.483
952.991;  -31.360;  -32.710;   -2.067
953.549;  -25.710;  -39.430;  -76.733
954.107;  -33.870;  -47.520; -117.567
954.666;  -24.930;  -43.670; -106.367
955.224;  -31.330;  -47.570;  -88.400
955.782;  -29.410;  -33.770;   67.300
956.340;  -32.850;  -46.250;  -41.917
956.898;  -27.290;  -42.690;  -54.583
957.456;  -26.710;  -45.330;  -96.033
958.014;  -17.900;  -33.490;    9.450
958.572;  -20.160;  -39.510;  -50.517
959.130;  -20.060;  -27.660;    8.817
959.688;  -25.530;  -48.850; -103.467
960.246;  -19.370;  -36.250;  -18.200
960.804;  -21.390;  -39.060;  -22.617
961.362;  -18.970;  -42.040;  -81.017
961.919;  -17.820;  -48.320; -123.633
962.477;  -10.980;  -46.290; -109.267
963.035;   -7.490;  -45.740;  -47.883
963.592;  109.680;  -41.010;  -34.367
964.150;  660.540;  -35.120;  -23.833
964.707; 1158.240;  -39.300;  -13.533
965.265; 1312.850;  -50.870;  -84.333
965.822; 1345.730;  -39.490;  -50.533
966.379; 1344.930;  -51.390; -139.033
966.937; 1323.850;  -49.710;  -97.317
967.494; 1249.380;  -53.890; -128.550
968.051; 1079.520;  -48.380; -125.317
968.608;  541.640;  -26.610;   88.067
969.165;  138.260;  -53.690; -107.367
969.722;   16.040;  -56.790; -145.183
970.279;   -7.350;  -31.550;   37.317
970.836;  -22.070;  -47.630; -109.983
971.393;  -23.270;  -39.260;  -27.500
971.950;  -24.390;  -46.970; -125.100
972.507;  -22.410;  -46.450; -105.900
973.064;  -24.350;  -37.870;   21.383
973.621;  -25.940;  -36.500;  -35.200
974.177;  -22.650;  -45.580;  -50.617
974.734;  -20.150;  -51.240; -124.267
975.291;  -23.560;  -31.290;   76.450
975.847;  -22.840;  -37.760;  -13.483
976.404;   17.420;  -38.680;  -28.417
976.960;  130.270;  -43.530; -109.900
977.517;  202.550;  -39.550;    4.317
978.073;  224.710;  -36.400;  -36.883
978.629;  225.870;  -45.140;  -46.617
979.186;  241.380;  -42.370;  -28.800
979.742;  224.670;  -33.070;   30.300
980.298;  204.610;  -43.500;  -93.767
980.854;  158.270;  -40.130;   -6.067
981.411;   52.900;  -43.270; -103.133
981.967;  -10.160;  -52.180; -111.717
982.523;  -26.710;  -48.630;  -90.933
983.079;  -23.610;  -46.190;  -49.700
983.635;  -30.750;  -35.420;  -67.467
984.190;  -31.340;  -38.430;  -46.467
984.746;  -32.540;  -43.670; -106.300
985.302;  -33.540;  -43.440;  -70.267
985.858;  -34.430;  -38.760;  -62.350
986.414;  -27.040;  -46.880;  -80.567
986.969;  -32.800;  -49.180;  -91.667
987.525;  -32.360;  -53.060; -136.200
988.080;  -29.770;  -47.690; -120.850
988.636;  -35.310;  -48.410; -122.167
989.192;  -35.690;  -51.010; -129.133
989.747;  -27.710;  -36.500;   34.350
990.302;  -35.650;  -48.550;  -99.083
990.858;  -36.940;  -41.440;  -87.633
991.413;  -31.890;  -38.450;  -49.800
991.968;  -32.080;  -40.480;  -39.867
992.523;  -33.740;  -42.150;  -81.033
993.079;  -28.290;  -45.690;  -61.050
993.634;  -33.170;  -37.970;  -71.383
994.189;  -29.790;  -36.830;  -41.767
994.744;  -31.320;  -49.350;  -96.417
995.299;  -33.050;  -50.690; -130.850
995.854;  -32.830;  -45.690; -107.467
996.409;  -31.750;  -40.410;  -44.350
996.963;  -30.650;  -40.550;  -41.083
997.518;  -31.990;  -29.570;   95.450
998.073;  -37.210;  -39.520;  -25.033
998.628;  -31.220;  -49.040; -127.217
999.182;  -33.720;  -37.850;   12.083
999.737;  -34.410;  -39.890;  -33.567
1000.292;  -32.370;  -44.960;  -61.233
1000.846;  -33.230;  -40.240;  -48.683
1001.401;  -25.850;  -38.740;  -42.583
1001.955;  -36.200;  -50.200; -140.117
1002.509;  -34.900;  -49.470;  -59.067
1003.064;  -32.730;  -51.800; -103.017
1003.618;  -35.900;  -27.300;   80.833
1004.172;  -31.990;  -50.600; -104.933
1004.726;  -33.200;  -50.800; -136.250
1005.281;  -27.460;  -19.690;  170.067
1005.835;  -29.090;  -49.940; -130.233
1006.389;  -27.990;  -52.290; -117.783
1006.943;  -25.230;  -48.050; -109.850
1007.497;  -35.600;  -44.230;    0.250
1008.051;  -33.400;  -47.510; -123.283
1008.605;  -32.530;  -47.650;  -90.850
1009.158;  -36.160;  -52.830;  -75.417
1009.712;  -41.180;  -45.790;  -34.700
1010.266;  -37.640;  -50.000; -115.433
1010.820;  -35.610;  -52.640; -115.883
1011.373;  -34.570;  -32.490;   26.550
1011.927;  -40.000;  -41.000;  -13.717
1012.480;  -38.910;  -38.670;  -29.567
1013.034;  -41.530;  -44.020;  -78.950
1013.587;  -40.360;  -39.700;  -39.300
1014.141;  -37.090;  -46.590;  -97.500
1014.694;  -37.850;  -51.300; -122.767
1015.248;  -37.820;  -23.390;  136.383
1015.801;  -33.240;  -38.830;  -18.300
1016.354;  -36.150;  -50.540; -132.683
1016.907;  -37.870;  -42.210; -102.917
1017.460;  -34.520;  -50.240; -111.550
1018.013;  -34.900;  -46.130;  -90.250
1018.567;  -41.590;  -51.980; -110.783
1019.120;  -29.990;  -43.430;  -91.667
1019.672;  -33.170;  -40.900;  -15.300
1020.225;  -35.550;  -37.050;   27.083
1020.778;  -38.120;  -53.170; -137.583
1021.331;  -34.820;  -43.670;  -72.050
1021.884;  -34.660;  -43.530;   51.167
1022.437;  -32.450;  -33.160;   44.167
1022.989;  -36.110;  -47.320;  -80.617
1023.542;  -35.930;  -46.890; -117.333
1024.094;  -38.160;  -30.890;   85.667
1024.647;  -33.460;  -41.640;  -85.767
1025.199;  -38.180;  -53.980; -131.417
1025.752;  -35.960;   -3.690;  341.467
1026.304;  -34.500;  -43.890;  -44.350
1026.857;  -33.120;  -44.890;  -87.700
1027.409;  -38.460;  -41.440;  -27.767
1027.961;  -37.750;  -47.410;  -87.117
1028.513;  -35.460;  -41.490;  -58.233
1029.066;  -32.510;  -47.690; -116.283
1029.618;  -33.880;  -53.680;  -94.167
1030.170;  -30.530;  -41.340;  -42.617
1030.722;  -38.100;  -46.620;  -47.050
1031.274;  -31.570;  -50.080;  -95.767
1031.826;  -39.710;  -45.340;  -58.033
1032.378;  -33.540;  -34.200;   56.917
1032.929;  -31.550;  -43.030;  -44.133
1033.481;  -32.190;  -38.880;  -20.767
1034.033;  -33.750;  -41.330;  -39.467
1034.585;  -35.150;  -43.480;  -41.833
1035.136;  -35.570;  -48.660;  -90.417
1035.688;  -31.490;  -50.110; -127.083
1036.239;  -34.070;  -53.740; -117.550
1036.791;  -35.410;  -50.550;  -78.767
1037.342;  -36.470;  -54.000; -129.400
1037.894;  -37.440;  -46.550;  -85.883
1038.445;  -35.680;  -51.340; -136.633
1038.996;  -34.440;  -41.420;  -93.967
1039.548;  -35.120;  -52.760; -106.750
1040.099;  -35.070;  -40.330;   27.450
1040.650;  -35.540;  -49.410; -119.383
1041.201;  -31.590;  -45.500;  -77.000
1041.752;  -36.810;  -45.140;  -69.533
1042.303;  -34.790;  -48.860; -100.800
1042.854;  -34.150;  -46.880;  -99.217
1043.405;  -35.770;  -42.150;  -34.550
1043.956;  -29.560;  -52.870; -129.967
1044.507;  -34.080;  -48.370;  -88.250
1045.058;  -31.300;  -35.120;   26.017
1045.609;   -7.340;  -45.450;  -96.817
1046.159;    2.550;  -34.420;   -3.000
1046.710;   10.680;  -50.320; -102.517
1047.261;   16.400;  -49.170;  -87.800
1047.811;   14.660;  -47.390; -121.567
1048.362;   16.120;  -48.870; -128.667
1048.912;   20.560;   88.520; 1215.600
1049.463;    5.320;  -26.020;  114.100
1050.013;  -14.850;  -50.400;  -88.183
1050.563;  -20.210;  -53.760; -111.783
1051.114;  -35.130;  -43.950;  -35.983
1051.664;  -37.960;  -46.020; -128.617
1052.214;  -34.370;  -42.660;  -84.333
1052.764;  -33.720;  -46.620;  -50.300
1053.314;  -29.750;  -43.130;  -82.067
1053.864;  -33.400;  -48.480;  -70.333
1054.414;  -37.790;  -45.360;  -74.833
1054.964;  -31.980;  -45.730;  -87.333
1055.514;  -35.100;  -12.640;  222.300
1056.064;  -39.170;  -51.100; -141.017
1056.614;  -32.910;  -32.280;   60.717
1057.163;  -39.630;  -47.400;  -85.417
1057.713;  -37.080;  -43.330;  -81.400
1058.263;  -37.290;  -46.920; -119.967
1058.812;  -39.700;  -42.330;  -30.783
1059.362;  -36.900;  -55.670; -144.233
1059.912;  -39.790;  -41.720;  -33.683
1060.461;  -38.020;  -45.300;  -48.100
1061.010;  -32.160;  -42.120;  -93.150
1061.560;  -37.700;  -52.640; -131.383
1062.109;  -41.530;  -41.360;  -28.833
1062.658;  -39.150;  -52.870; -103.833
1063.208;  -38.550;  -53.040; -130.100
1063.757;  -37.730;  -52.250; -106.417
1064.306;  -40.220;  -42.190;  -68.700
1064.855;  -42.690;  -50.980; -133.100
1065.404;  -36.430;  -33.560;   46.000
1065.953;  -30.850;  -33.730;   21.117
1066.502;  -25.210;  -53.370; -114.117
1067.051;  -21.610;  -49.450;  -93.117
1067.600;  -21.220;  -38.330;  -17.350
1068.149;  -22.120;  -49.790;  -71.200
1068.698;  -11.470;  -48.980; -101.767
1069.246;  -21.370;  -51.870;  -59.100
1069.795;  -23.710;  -46.660;  -91.800
1070.344;  -27.980;  -53.030; -116.800
1070.892;  -34.270;  -35.720;    8.350
1071.441;  -37.860;  -47.930;  -59.983
1071.989;  -34.060;  -27.710;  131.600
1072.538;  -35.000;  -54.540; -131.067
1073.086;  -34.700;  -52.420; -102.767
1073.634;  -36.970;  -42.610;  -50.917
1074.183;  -33.310;  -44.610;  -45.217
1074.731;  -40.430;  -57.540; -138.100
1075.279;  -38.390;  -34.090;   31.533
1075.827;  -36.440;  -47.420;  -72.333
1076.375;  -37.170;  -54.530; -129.117
1076.923;  -33.100;  -45.190;  -91.950
1077.471;  -39.260;  -41.140;  -35.367
1078.019;  -41.390;  -35.170;   46.400
1078.567;  -38.780;  -54.740; -130.300
1079.115;  -37.780;  -55.200; -115.433
1079.663;  -39.970;  -48.710; -129.217
1080.210;  -39.350;  -42.630;  -74.933
1080.758;  -35.220;  -46.120;  -56.833
1081.306;  -40.570;  -58.890; -134.833
1081.853;  -38.910;  -51.760; -129.817
1082.401;  -39.910;  -42.840;  -21.450
1082.949;  -41.200;  -47.500;  -76.633
1083.496;  -35.330;  -46.000;  -48.667
1084.043;  -33.340;  -45.670; -107.783
1084.591;  -39.510;  -44.570;  -56.700
1085.138;  -35.160;  -48.680; -122.600
1085.685;  -42.490;  -50.470;  -75.867
1086.233;  -40.950;  -42.920;  -53.433
1086.780;  -40.790;  -39.530;  -20.517
1087.327;  -35.960;  -38.650;  -13.667
1087.874;  -43.410;  -49.620; -107.667
1088.421;  -36.980;  -36.980;    1.300
1088.968;  -39.530;  -57.230; -124.667
1089.515;  -40.360;  -41.090;  -35.117
1090.062;  -42.900;  -53.250; -117.400
1090.609;  -35.260;  -54.700; -124.833
1091.156;  -35.540;  -42.410;  -71.017
1091.702;  -46.060;  -50.350; -103.100
1092.249;  -41.830;  -52.440; -121.583
1092.796;  -40.100;  -41.650;  -52.283
1093.342;  -39.060;  -42.790;  -47.500
1093.889;  -40.380;  -48.880;  -73.833
1094.435;  -39.710;  -42.690;  -21.900
1094.982;  -34.830;  -32.240;   78.350
1095.528;  -37.760;  -46.370;  -39.067
1096.075;  -40.250;  -43.220;  -64.950
1096.621;  -39.050;  -50.540;  -95.717
1097.167;  -41.130;  -36.030;   -2.350
1097.713;  -38.830;  -53.950;  -84.200
1098.259;  -41.920;  -52.740; -116.750
1098.806;  -37.330;  -48.480;  -66.767
1099.352;  -38.030;  -47.210; -105.217
1099.898;  -40.560;  -46.670;  -47.817
1100.444;  -41.590;  -49.920; -123.600

