Ar
Integration time [ms]:  10.000
Averaging Nr. [scans]: 60
Smoothing Nr. [pixels]: 0
Data measured with spectrometer [name]: 1701237U1
Wave   ;Sample   ;Dark     ;Reference
[nm]   ;[counts] ;[counts] ;[counts] 

173.876;   -6.838;   -0.614;    0.000
174.482;   -2.335;    0.785;    0.000
175.087;   -0.119;    0.751;    0.000
175.693;    5.729;    1.668;    0.000
176.298;    2.817;   -3.981;    0.000
176.903;   -5.976;    5.667;    0.000
177.509;   -5.551;   -0.033;    0.000
178.114;    2.415;   -1.165;    0.000
178.719;    0.501;  -11.049;    0.000
179.325;   -8.492;   -5.865;    0.000
179.930;   -5.712;   -2.065;    0.000
180.535;   -0.362;   -6.266;    0.000
181.140;   -2.265;    1.002;    0.000
181.745;   -0.374;    5.817;    0.000
182.351;    1.671;   -0.633;    0.000
182.956;   -8.160;    6.618;    0.000
183.561;   -0.169;   -1.281;    0.000
184.166;    0.525;   -1.615;    0.000
184.771;   -8.405;   -0.583;    0.000
185.376;   -3.696;   -0.032;    0.000
185.981;   -3.121;    0.918;    0.000
186.586;   -1.277;    2.368;    0.000
187.191;   -7.046;    2.235;    0.000
187.796;   -1.748;   -2.765;    0.000
188.400;   -1.571;   -2.713;    0.000
189.005;    3.664;   -4.082;    0.000
189.610;  -10.997;   -0.682;    0.000
190.215;  -10.220;    2.552;    0.000
190.820;   -3.087;    3.752;    0.000
191.424;  -10.084;   -0.948;    0.000
192.029;   -2.496;   -0.797;    0.000
192.634;  -14.289;    4.203;    0.000
193.238;    0.221;    2.517;    0.000
193.843;   -7.438;   -0.213;    0.000
194.448;   -1.419;   -0.980;    0.000
195.052;   -7.907;   -0.448;    0.000
195.657;  -10.108;    4.353;    0.000
196.261;    3.691;    1.187;    0.000
196.866;   -2.863;   -3.980;    0.000
197.470;    1.523;   -0.814;    0.000
198.075;   -5.208;   -0.813;    0.000
198.679;   -8.262;   -8.346;    0.000
199.284;  -11.672;   -3.815;    0.000
199.888;    3.281;   -7.679;    0.000
200.492;   -3.934;   -4.447;    0.000
201.097;   -7.287;    3.053;    0.000
201.701;  -11.757;   -2.496;    0.000
202.305;   -6.432;    2.252;    0.000
202.909;    2.622;   -0.098;    0.000
203.514;   -0.457;   -6.464;    0.000
204.118;   -3.034;   -6.050;    0.000
204.722;   -0.360;   -5.332;    0.000
205.326;   -7.167;   -1.765;    0.000
205.930;   -4.417;   -6.448;    0.000
206.534;  -13.165;   -1.548;    0.000
207.138;   -6.803;   -3.714;    0.000
207.742;   -4.065;    2.269;    0.000
208.346;    1.882;    1.003;    0.000
208.950;   -2.675;   -5.015;    0.000
209.554;   -3.138;   -5.264;    0.000
210.158;   -1.849;    2.553;    0.000
210.762;   -2.167;   -1.031;    0.000
211.366;  -12.665;   -2.514;    0.000
211.970;  -11.051;   -5.898;    0.000
212.574;   -1.800;    1.853;    0.000
213.177;   -5.254;   -1.897;    0.000
213.781;   -2.086;    2.620;    0.000
214.385;   -8.133;   -2.231;    0.000
214.989;   -0.287;   -7.764;    0.000
215.592;   -3.151;   -6.430;    0.000
216.196;   -3.226;    0.504;    0.000
216.800;   -4.926;   -4.630;    0.000
217.403;    2.415;   -0.347;    0.000
218.007;   -3.619;   -7.096;    0.000
218.610;    0.666;    1.153;    0.000
219.214;  -20.414;    2.336;    0.000
219.817;   -5.754;    3.202;    0.000
220.421;   -5.888;  -10.914;    0.000
221.024;  -14.415;   -0.462;    0.000
221.628;   -6.048;   -4.312;    0.000
222.231;   -9.920;   -5.213;    0.000
222.834;   -7.777;    2.836;    0.000
223.438;   -7.434;   -4.132;    0.000
224.041;    0.784;   -0.812;    0.000
224.644;   -7.024;    0.870;    0.000
225.248;  -10.825;   -8.148;    0.000
225.851;   -4.508;   -1.065;    0.000
226.454;   -2.907;    0.087;    0.000
227.057;   -2.293;   -0.197;    0.000
227.660;   -6.723;   -2.681;    0.000
228.263;  -10.479;    5.520;    0.000
228.866;   -9.064;   -5.780;    0.000
229.470;  -11.759;   -1.081;    0.000
230.073;  -11.674;    0.703;    0.000
230.676;   -5.483;    2.768;    0.000
231.279;   -7.700;    0.437;    0.000
231.882;   -1.169;   -2.530;    0.000
232.484;   -1.702;   -6.748;    0.000
233.087;   -7.907;    1.352;    0.000
233.690;  -10.498;   -3.064;    0.000
234.293;   -3.493;   -4.981;    0.000
234.896;   -5.693;   -9.247;    0.000
235.499;   -8.549;   -6.412;    0.000
236.101;  -11.733;   -5.398;    0.000
236.704;   -5.287;   -8.197;    0.000
237.307;   -7.712;   -4.130;    0.000
237.910;   -2.785;   -3.213;    0.000
238.512;   -8.116;   -5.315;    0.000
239.115;   -8.647;  -10.900;    0.000
239.717;  -12.037;   -5.946;    0.000
240.320;   -2.858;   -5.732;    0.000
240.923;   -8.392;   -1.980;    0.000
241.525;   -2.498;   -3.346;    0.000
242.128;   -4.981;   -1.814;    0.000
242.730;   -0.287;   -4.848;    0.000
243.332;   -6.562;   -0.949;    0.000
243.935;   -8.107;   -2.663;    0.000
244.537;  -11.409;   -7.181;    0.000
245.140;   -4.990;   -5.614;    0.000
245.742;   -4.967;   -8.780;    0.000
246.344;  -11.233;   -2.264;    0.000
246.946;  -12.758;   -8.463;    0.000
247.549;   -2.858;   -3.114;    0.000
248.151;   -4.292;  -10.796;    0.000
248.753;   -7.814;   -9.231;    0.000
249.355;  -13.796;   -2.479;    0.000
249.957;   -4.048;   -2.998;    0.000
250.559;   -3.492;   -2.280;    0.000
251.161;   -8.935;   -3.198;    0.000
251.764;   -9.613;   -3.580;    0.000
252.366;  -11.271;   -5.048;    0.000
252.968;   -7.573;   -2.797;    0.000
253.570;   -7.892;   -7.264;    0.000
254.171;   -8.810;   -4.413;    0.000
254.773;  -13.155;   -8.181;    0.000
255.375;   -9.234;   -8.780;    0.000
255.977;   -0.051;   -6.882;    0.000
256.579;   -3.402;   -9.965;    0.000
257.181;   -6.513;   -4.831;    0.000
257.782;  -11.188;   -8.464;    0.000
258.384;   -7.051;  -11.547;    0.000
258.986;   -7.583;  -11.582;    0.000
259.588;  -13.872;   -3.898;    0.000
260.189;  -11.648;   -7.180;    0.000
260.791;   -5.286;   -2.514;    0.000
261.392;   -8.597;   -7.897;    0.000
261.994;   -9.222;  -11.713;    0.000
262.596;   -8.753;  -11.763;    0.000
263.197;   -7.871;   -8.582;    0.000
263.799;  -10.831;  -11.412;    0.000
264.400;  -13.768;  -14.097;    0.000
265.002;   -3.505;  -12.114;    0.000
265.603;   -8.781;   -0.948;    0.000
266.204;   -7.175;  -11.598;    0.000
266.806;   -6.523;  -11.264;    0.000
267.407;   -5.013;  -12.797;    0.000
268.008;  -10.094;   -4.198;    0.000
268.610;   -9.085;   -8.680;    0.000
269.211;  -17.615;  -13.713;    0.000
269.812;   -5.105;  -11.782;    0.000
270.413;  -10.289;  -10.831;    0.000
271.014;  -10.434;  -10.614;    0.000
271.615;   -5.384;   -9.732;    0.000
272.217;  -10.527;  -13.681;    0.000
272.818;  -13.228;  -10.047;    0.000
273.419;  -11.364;  -12.397;    0.000
274.020;   -7.662;   -6.714;    0.000
274.621;   -8.840;   -7.463;    0.000
275.222;  -10.885;  -12.915;    0.000
275.823;   -9.083;  -18.813;    0.000
276.423;  -13.256;  -13.130;    0.000
277.024;   -6.555;  -11.331;    0.000
277.625;  -12.197;  -11.014;    0.000
278.226;  -12.873;   -8.597;    0.000
278.827;   -3.368;   -9.647;    0.000
279.427;    0.122;   -5.297;    0.000
280.028;  -11.735;   -7.032;    0.000
280.629;   -8.095;  -11.914;    0.000
281.230;  -15.092;   -7.381;    0.000
281.830;  -11.616;  -12.946;    0.000
282.431;   -6.202;    5.303;    0.000
283.031;  -13.676;  -12.314;    0.000
283.632;  -18.116;  -11.497;    0.000
284.233;   -5.482;   -9.130;    0.000
284.833;   -8.437;  -10.130;    0.000
285.434;   -1.554;   -3.514;    0.000
286.034;   -9.289;   -3.382;    0.000
286.634;   -9.171;  -11.930;    0.000
287.235;  -10.585;  -13.814;    0.000
287.835;  -11.478;  -10.948;    0.000
288.435;  -11.887;   -8.531;    0.000
289.036;   -8.024;  -14.032;    0.000
289.636;  -12.611;  -14.581;    0.000
290.236;   -5.467;   -2.612;    0.000
290.837;  -11.792;  -14.116;    0.000
291.437;   -5.788;  -13.132;    0.000
292.037;   -4.315;  -12.499;    0.000
292.637;   -2.437;   -8.548;    0.000
293.237;   -7.866;  -10.315;    0.000
293.837;   -3.844;  -16.030;    0.000
294.437;  -16.162;  -15.397;    0.000
295.037;  -11.292;  -17.781;    0.000
295.637;  -11.328;   -4.865;    0.000
296.237;  -11.446;  -11.132;    0.000
296.837;  -12.657;  -20.898;    0.000
297.437;  -13.808;  -12.831;    0.000
298.037;  -10.133;  -17.333;    0.000
298.637;   -6.060;  -10.549;    0.000
299.237;  -12.076;  -17.697;    0.000
299.836;   -6.264;  -10.865;    0.000
300.436;  -11.843;  -22.448;    0.000
301.036;   -9.896;  -12.432;    0.000
301.636;   -6.121;  -12.580;    0.000
302.235;   -9.177;  -12.281;    0.000
302.835;   -7.482;  -11.183;    0.000
303.434;   -5.400;  -16.580;    0.000
304.034;  -10.836;  -16.730;    0.000
304.634;  -12.340;  -13.415;    0.000
305.233;   -1.138;  -18.231;    0.000
305.833;   -7.538;  -11.798;    0.000
306.432;   -6.021;  -14.431;    0.000
307.032;  -17.386;   -9.764;    0.000
307.631;   -6.562;  -12.898;    0.000
308.230;   -0.874;  -10.897;    0.000
308.830;   -5.726;  -16.280;    0.000
309.429;  -11.684;  -15.296;    0.000
310.028;  -14.045;  -10.296;    0.000
310.628;   -6.001;  -15.863;    0.000
311.227;   -9.394;  -14.379;    0.000
311.826;  -10.335;  -10.847;    0.000
312.425;  -15.312;  -17.748;    0.000
313.024;   -3.540;  -18.130;    0.000
313.623;   -9.573;  -12.448;    0.000
314.223;   -8.462;  -16.297;    0.000
314.822;   -7.518;  -16.597;    0.000
315.421;   -4.259;  -17.029;    0.000
316.020;  -11.586;  -13.497;    0.000
316.619;  -13.239;  -10.529;    0.000
317.218;   -9.737;  -10.829;    0.000
317.816;   -7.766;  -20.730;    0.000
318.415;   -7.613;  -14.431;    0.000
319.014;   -8.654;  -18.129;    0.000
319.613;  -12.294;  -15.329;    0.000
320.212;   -5.731;  -14.830;    0.000
320.811;  -13.386;  -10.711;    0.000
321.409;  -10.404;  -16.864;    0.000
322.008;   -8.301;  -19.097;    0.000
322.607;  -16.431;  -17.528;    0.000
323.205;  -13.118;  -19.146;    0.000
323.804;  -13.341;  -12.679;    0.000
324.403;  -11.332;  -19.894;    0.000
325.001;  -10.792;  -19.645;    0.000
325.600;  -13.321;  -15.128;    0.000
326.198;   -7.925;  -15.246;    0.000
326.797;  -16.603;  -20.912;    0.000
327.395;   -9.823;  -20.377;    0.000
327.994;  -10.114;  -17.542;    0.000
328.592;  -15.296;  -13.709;    0.000
329.190;   -2.148;  -12.275;    0.000
329.789;  -17.979;  -12.825;    0.000
330.387;   -8.319;  -21.574;    0.000
330.985;  -10.271;  -21.025;    0.000
331.583;  -10.904;  -12.707;    0.000
332.182;  -15.022;  -17.256;    0.000
332.780;  -11.184;   -9.972;    0.000
333.378;   -6.017;  -11.121;    0.000
333.976;   -9.525;  -21.255;    0.000
334.574;   -9.181;  -20.821;    0.000
335.172;  -13.823;  -19.305;    0.000
335.770;  -12.476;  -17.139;    0.000
336.368;  -10.238;  -14.854;    0.000
336.966;   -3.785;  -19.840;    0.000
337.564;  -11.705;  -21.872;    0.000
338.162;   -4.186;  -19.990;    0.000
338.760;   -7.232;  -19.258;    0.000
339.358;   -9.680;  -18.707;    0.000
339.956;   -7.820;  -16.241;    0.000
340.554;  -10.612;  -20.108;    0.000
341.151;   -6.947;  -16.308;    0.000
341.749;   -7.312;  -24.023;    0.000
342.347;  -10.637;  -22.740;    0.000
342.944;   -7.952;  -24.737;    0.000
343.542;   -7.113;  -11.039;    0.000
344.140;   -8.582;  -13.839;    0.000
344.737;  -17.481;  -23.188;    0.000
345.335;   -6.878;  -17.140;    0.000
345.932;   -6.847;  -15.423;    0.000
346.530;   -6.957;  -23.274;    0.000
347.127;   -2.274;  -24.474;    0.000
347.725;  -12.961;  -22.839;    0.000
348.322;  -14.656;  -17.357;    0.000
348.920;   -8.153;  -24.107;    0.000
349.517;   -4.479;  -21.573;    0.000
350.114;  -11.267;  -22.089;    0.000
350.712;   -8.527;  -17.874;    0.000
351.309;   -9.653;  -21.691;    0.000
351.906;   -8.141;  -21.857;    0.000
352.503;   -5.657;  -17.557;    0.000
353.100;   -7.980;  -23.057;    0.000
353.698;   -7.627;  -16.475;    0.000
354.295;   -3.640;   -7.740;    0.000
354.892;   -7.655;  -15.572;    0.000
355.489;   -4.121;  -24.175;    0.000
356.086;   -5.508;  -19.456;    0.000
356.683;   -3.518;  -17.691;    0.000
357.280;   -7.556;  -20.989;    0.000
357.877;   -6.084;  -18.589;    0.000
358.474;   -3.826;  -21.223;    0.000
359.070;   -2.981;  -23.657;    0.000
359.667;   -3.635;  -24.974;    0.000
360.264;  -15.517;  -17.307;    0.000
360.861;   -4.842;  -16.439;    0.000
361.458;   -6.439;  -18.092;    0.000
362.054;   -4.275;  -17.523;    0.000
362.651;   -7.251;  -18.208;    0.000
363.248;   -5.657;  -18.358;    0.000
363.844;   -4.934;  -19.575;    0.000
364.441;   -2.016;  -19.574;    0.000
365.037;   -1.426;  -16.174;    0.000
365.634;  -13.401;  -20.841;    0.000
366.230;  -12.032;  -26.542;    0.000
366.827;   -2.079;  -17.708;    0.000
367.423;  -12.126;  -17.457;    0.000
368.020;   -9.149;  -16.608;    0.000
368.616;  -10.478;  -20.806;    0.000
369.213;   -8.870;  -19.673;    0.000
369.809;   -0.293;  -18.624;    0.000
370.405;   -3.038;  -27.876;    0.000
371.001;  -11.689;  -24.605;    0.000
371.598;   -0.893;  -18.123;    0.000
372.194;   -1.104;  -19.274;    0.000
372.790;   -6.865;  -26.975;    0.000
373.386;   -6.496;  -24.924;    0.000
373.982;   -6.059;  -27.640;    0.000
374.578;  -15.139;  -20.524;    0.000
375.174;  -10.317;  -23.705;    0.000
375.770;   -5.963;  -25.440;    0.000
376.366;   -9.602;  -26.056;    0.000
376.962;   -8.355;  -12.656;    0.000
377.558;    1.057;  -27.357;    0.000
378.154;   -8.676;  -20.191;    0.000
378.750;   -5.046;  -21.923;    0.000
379.346;   -1.599;  -17.507;    0.000
379.942;   -2.157;  -17.289;    0.000
380.537;   -1.130;  -16.222;    0.000
381.133;   -1.336;  -26.956;    0.000
381.729;   -2.113;  -21.075;    0.000
382.325;   -2.788;  -28.342;    0.000
382.920;   -3.747;  -16.723;    0.000
383.516;   -5.494;  -18.691;    0.000
384.111;   -8.278;  -20.073;    0.000
384.707;   -4.531;  -23.922;    0.000
385.302;   -5.738;  -23.606;    0.000
385.898;    4.430;  -12.223;    0.000
386.493;   -1.418;  -22.106;    0.000
387.089;   -9.772;  -12.155;    0.000
387.684;   -8.710;  -25.990;    0.000
388.280;   -6.510;  -18.740;    0.000
388.875;   -8.046;  -19.408;    0.000
389.470;    2.186;  -23.856;    0.000
390.066;   -0.762;  -21.290;    0.000
390.661;   -8.871;  -22.907;    0.000
391.256;    0.328;  -23.206;    0.000
391.851;    1.561;  -20.256;    0.000
392.446;    2.748;  -17.756;    0.000
393.041;    4.314;  -25.291;    0.000
393.637;    2.976;  -20.874;    0.000
394.232;    8.985;  -19.807;    0.000
394.827;   16.044;  -14.924;    0.000
395.422;   13.150;  -22.605;    0.000
396.017;    9.821;  -22.241;    0.000
396.612;    6.846;  -21.405;    0.000
397.206;   13.028;  -22.507;    0.000
397.801;  145.685;   59.510;    0.000
398.396;    4.773;  -13.757;    0.000
398.991;    1.074;  -30.240;    0.000
399.586;    4.739;  -20.356;    0.000
400.180;   -6.512;  -24.173;    0.000
400.775;    1.692;  -19.774;    0.000
401.370;   -2.152;  -17.425;    0.000
401.965;    0.483;  -16.490;    0.000
402.559;   12.907;  -28.624;    0.000
403.154;   18.219;  -15.257;    0.000
403.748;   19.852;  -22.091;    0.000
404.343;   21.656;  -15.423;    0.000
404.937;   18.817;  -27.090;    0.000
405.532;   18.753;  -18.923;    0.000
406.126;   19.681;  -24.239;    0.000
406.721;   20.716;  -17.491;    0.000
407.315;    7.017;  -23.473;    0.000
407.909;   -1.123;  -17.307;    0.000
408.504;    5.624;  -25.625;    0.000
409.098;    4.147;  -19.907;    0.000
409.692;    7.069;  -20.074;    0.000
410.286;    0.375;  -24.308;    0.000
410.881;    1.156;  -19.874;    0.000
411.475;    3.604;  -16.391;    0.000
412.069;   10.428;  -21.424;    0.000
412.663;    1.486;  -29.808;    0.000
413.257;    6.906;  -26.141;    0.000
413.851;   18.316;  -22.908;    0.000
414.445;   84.316;  -23.457;    0.000
415.039;  105.983;  -23.791;    0.000
415.633;  107.679;  -18.540;    0.000
416.227;  122.039;  -20.607;    0.000
416.821;  135.508;  -23.257;    0.000
417.415;  151.439;  -16.442;    0.000
418.008;  188.255;  -20.924;    0.000
418.602;  206.378;  -17.973;    0.000
419.196;  205.313;  -26.574;    0.000
419.790;  186.862;  -20.008;    0.000
420.383;  176.037;  -16.075;    0.000
420.977;  179.971;  -20.608;    0.000
421.571;  156.066;  -18.924;    0.000
422.164;  133.938;  -20.875;    0.000
422.758;   80.504;  -16.226;    0.000
423.351;   24.474;  -26.258;    0.000
423.945;   14.586;  -17.959;    0.000
424.538;   37.677;  -15.759;    0.000
425.132;   70.399;  -15.141;    0.000
425.725;   91.933;  -21.642;    0.000
426.318;  101.215;  -21.441;    0.000
426.912;  116.676;  -15.359;    0.000
427.505;   96.331;  -18.443;    0.000
428.098;  102.383;  -17.092;    0.000
428.692;  107.007;  -18.859;    0.000
429.285;   86.933;  -23.524;    0.000
429.878;   71.154;  -17.925;    0.000
430.471;   47.161;  -17.643;    0.000
431.064;   42.575;  -24.442;    0.000
431.657;   55.192;  -20.559;    0.000
432.250;   69.596;  -20.692;    0.000
432.843;   71.544;  -18.093;    0.000
433.436;   64.457;  -19.925;    0.000
434.029;   66.589;  -21.243;    0.000
434.622;   65.351;  -20.676;    0.000
435.215;   65.488;  -21.744;    0.000
435.808;   60.937;  -25.809;    0.000
436.401;   41.115;  -21.910;    0.000
436.994;   24.558;  -18.509;    0.000
437.586;   16.009;  -26.609;    0.000
438.179;   17.073;  -21.577;    0.000
438.772;   13.301;  -20.093;    0.000
439.364;    8.131;  -22.076;    0.000
439.957;   10.296;  -14.461;    0.000
440.550;   13.475;  -22.260;    0.000
441.142;    8.433;  -13.260;    0.000
441.735;    9.708;  -19.991;    0.000
442.327;    9.551;  -15.659;    0.000
442.920;   11.403;  -21.727;    0.000
443.512;    4.516;  -20.193;    0.000
444.104;   13.144;  -19.609;    0.000
444.697;   11.830;  -20.811;    0.000
445.289;    9.860;  -20.975;    0.000
445.881;    4.234;  -24.859;    0.000
446.474;   11.535;  -25.761;    0.000
447.066;    9.845;  -22.060;    0.000
447.658;    2.327;  -17.342;    0.000
448.250;   10.437;  -11.793;    0.000
448.843;    6.169;  -11.560;    0.000
449.435;   18.387;  -19.878;    0.000
450.027;   22.156;  -20.591;    0.000
450.619;   30.351;  -18.042;    0.000
451.211;   27.186;  -17.625;    0.000
451.803;   30.705;  -10.960;    0.000
452.395;   27.519;  -20.727;    0.000
452.987;   31.352;  -21.928;    0.000
453.579;   27.801;  -17.294;    0.000
454.170;   18.317;  -20.095;    0.000
454.762;   20.330;  -17.228;    0.000
455.354;   12.208;  -18.644;    0.000
455.946;    6.996;  -14.593;    0.000
456.537;    8.911;  -15.611;    0.000
457.129;   23.572;  -25.210;    0.000
457.721;   21.646;  -22.762;    0.000
458.312;   18.825;  -17.512;    0.000
458.904;   20.929;  -19.194;    0.000
459.496;   16.529;  -18.043;    0.000
460.087;   19.594;  -18.026;    0.000
460.679;   22.614;  -20.277;    0.000
461.270;   27.580;  -13.444;    0.000
461.862;   24.623;  -15.761;    0.000
462.453;   20.541;  -22.946;    0.000
463.044;   16.728;  -25.894;    0.000
463.636;   17.789;  -12.262;    0.000
464.227;   17.363;  -21.177;    0.000
464.818;   15.653;  -12.378;    0.000
465.409;   19.093;  -14.413;    0.000
466.001;   15.531;  -14.478;    0.000
466.592;   14.637;  -14.229;    0.000
467.183;   25.043;  -16.812;    0.000
467.774;   21.147;  -15.995;    0.000
468.365;   21.254;  -15.127;    0.000
468.956;   29.480;  -20.394;    0.000
469.547;   27.308;  -14.061;    0.000
470.138;   31.741;  -19.827;    0.000
470.729;   33.328;  -12.176;    0.000
471.320;   25.086;  -18.761;    0.000
471.911;   26.775;  -19.428;    0.000
472.502;   17.991;  -18.443;    0.000
473.092;   33.044;  -11.063;    0.000
473.683;   15.442;  -14.577;    0.000
474.274;   14.686;  -18.979;    0.000
474.865;   18.588;  -13.828;    0.000
475.455;   16.287;  -22.512;    0.000
476.046;   17.921;  -27.412;    0.000
476.637;   18.569;  -20.245;    0.000
477.227;   14.780;  -22.061;    0.000
477.818;   17.430;  -13.529;    0.000
478.408;   12.211;  -20.445;    0.000
478.999;   19.404;  -21.178;    0.000
479.589;   18.917;  -23.444;    0.000
480.180;   19.127;  -15.379;    0.000
480.770;   21.055;  -13.212;    0.000
481.360;   22.718;  -16.212;    0.000
481.951;   20.059;  -16.178;    0.000
482.541;   14.728;  -17.377;    0.000
483.131;   23.767;  -16.695;    0.000
483.721;   23.924;  -13.329;    0.000
484.312;   25.362;  -15.629;    0.000
484.902;   21.570;  -21.079;    0.000
485.492;   24.907;  -19.197;    0.000
486.082;   35.064;  -18.613;    0.000
486.672;   30.599;  -13.546;    0.000
487.262;   28.582;  -16.746;    0.000
487.852;   32.610;  -25.929;    0.000
488.442;   34.339;  -15.745;    0.000
489.032;   37.288;  -17.762;    0.000
489.622;   32.020;  -13.730;    0.000
490.212;   41.493;  -20.246;    0.000
490.801;   36.382;  -19.330;    0.000
491.391;   29.704;  -17.596;    0.000
491.981;   29.643;  -17.596;    0.000
492.571;   32.709;  -18.580;    0.000
493.160;   19.412;  -20.545;    0.000
493.750;   24.761;  -17.895;    0.000
494.340;   30.237;  -12.945;    0.000
494.929;   24.669;  -18.397;    0.000
495.519;   23.860;  -12.945;    0.000
496.108;   31.188;  -20.378;    0.000
496.698;   15.675;  -17.160;    0.000
497.287;   21.079;  -17.412;    0.000
497.876;   24.059;  -16.862;    0.000
498.466;   22.617;  -21.096;    0.000
499.055;   33.984;  -12.495;    0.000
499.645;   25.600;  -22.829;    0.000
500.234;   27.591;  -16.029;    0.000
500.823;   30.934;  -20.746;    0.000
501.412;   26.560;  -10.445;    0.000
502.001;   29.737;  -14.845;    0.000
502.591;   25.626;  -14.912;    0.000
503.180;   24.024;  -17.629;    0.000
503.769;   24.148;  -15.112;    0.000
504.358;   25.558;   -9.996;    0.000
504.947;   31.184;  -15.396;    0.000
505.536;   29.959;  -16.779;    0.000
506.125;   34.703;  -19.529;    0.000
506.714;   40.574;  -25.462;    0.000
507.303;   36.664;  -22.078;    0.000
507.891;   42.858;  -19.011;    0.000
508.480;   34.344;  -12.129;    0.000
509.069;   30.039;  -14.994;    0.000
509.658;   34.904;   -9.679;    0.000
510.246;   27.037;  -15.228;    0.000
510.835;   23.893;  -13.528;    0.000
511.424;   23.435;  -15.995;    0.000
512.012;   31.047;  -10.231;    0.000
512.601;   31.994;  -13.295;    0.000
513.189;   22.395;  -24.012;    0.000
513.778;   34.934;  -22.045;    0.000
514.366;   34.761;  -17.563;    0.000
514.955;   39.618;  -20.713;    0.000
515.543;   44.322;  -11.746;    0.000
516.132;   38.010;  -18.745;    0.000
516.720;   32.420;  -14.646;    0.000
517.308;   42.437;  -20.179;    0.000
517.896;   41.185;  -17.680;    0.000
518.485;   35.174;  -13.929;    0.000
519.073;   35.157;  -14.612;    0.000
519.661;   26.589;  -11.430;    0.000
520.249;   31.332;  -17.580;    0.000
520.837;   35.706;  -21.479;    0.000
521.425;   20.608;  -15.446;    0.000
522.013;   24.583;  -22.313;    0.000
522.601;   26.423;  -15.712;    0.000
523.189;   19.684;  -12.796;    0.000
523.777;   25.923;  -11.212;    0.000
524.365;   23.641;  -20.411;    0.000
524.953;   28.179;  -19.313;    0.000
525.541;   26.860;  -15.195;    0.000
526.129;   26.523;   -6.396;    0.000
526.716;   31.879;  -24.581;    0.000
527.304;   21.299;  -13.380;    0.000
527.892;   31.439;  -16.995;    0.000
528.479;   28.203;  -20.013;    0.000
529.067;   20.042;  -12.312;    0.000
529.655;   21.850;  -19.247;    0.000
530.242;   20.865;  -16.662;    0.000
530.830;   20.746;  -16.147;    0.000
531.417;   18.303;  -19.180;    0.000
532.005;   16.511;  -18.412;    0.000
532.592;   20.717;  -13.747;    0.000
533.179;   27.262;  -20.697;    0.000
533.767;   28.790;  -12.196;    0.000
534.354;   31.309;  -17.963;    0.000
534.941;   29.945;  -17.363;    0.000
535.529;   22.757;  -13.181;    0.000
536.116;   29.246;  -18.379;    0.000
536.703;   19.892;  -23.314;    0.000
537.290;   30.458;  -11.530;    0.000
537.877;   23.119;  -10.963;    0.000
538.464;   19.874;  -19.246;    0.000
539.051;   22.356;  -18.530;    0.000
539.638;   21.110;  -17.497;    0.000
540.225;   19.681;  -12.596;    0.000
540.812;   20.973;  -21.764;    0.000
541.399;   19.719;  -14.279;    0.000
541.986;   19.131;  -19.496;    0.000
542.573;   22.715;  -15.930;    0.000
543.160;   22.986;  -15.746;    0.000
543.746;   24.743;   -9.248;    0.000
544.333;   25.864;  -22.663;    0.000
544.920;   26.182;  -16.598;    0.000
545.506;   21.593;  -22.863;    0.000
546.093;   25.715;  -18.829;    0.000
546.680;   28.014;  -20.413;    0.000
547.266;   30.952;  -13.164;    0.000
547.853;   27.455;  -20.730;    0.000
548.439;   24.246;  -15.798;    0.000
549.025;   25.057;  -21.981;    0.000
549.612;   28.854;  -17.096;    0.000
550.198;   25.456;  -15.947;    0.000
550.785;   34.960;  -11.630;    0.000
551.371;   26.320;  -22.665;    0.000
551.957;   30.408;  -17.414;    0.000
552.543;   21.420;  -14.595;    0.000
553.130;   17.891;  -18.763;    0.000
553.716;   25.358;  -19.697;    0.000
554.302;   26.725;  -10.998;    0.000
554.888;   41.111;  -15.865;    0.000
555.474;   40.292;  -17.981;    0.000
556.060;   37.010;  -24.330;    0.000
556.646;   45.586;  -10.597;    0.000
557.232;   46.704;  -18.830;    0.000
557.818;   37.402;  -19.631;    0.000
558.404;   33.170;  -18.014;    0.000
558.990;   36.852;  -16.979;    0.000
559.576;   36.989;  -13.280;    0.000
560.161;   34.777;  -29.379;    0.000
560.747;   32.188;  -21.029;    0.000
561.333;   40.609;  -11.797;    0.000
561.918;   31.440;  -18.979;    0.000
562.504;   36.847;  -19.881;    0.000
563.090;   38.360;  -10.847;    0.000
563.675;   37.954;  -19.130;    0.000
564.261;   31.114;  -15.730;    0.000
564.846;   30.813;  -15.247;    0.000
565.432;   39.198;  -20.230;    0.000
566.017;   43.707;  -12.547;    0.000
566.603;   42.328;  -15.581;    0.000
567.188;   44.639;  -18.780;    0.000
567.773;   44.245;  -22.698;    0.000
568.359;   30.757;  -15.765;    0.000
568.944;   33.385;  -18.331;    0.000
569.529;   34.280;  -20.980;    0.000
570.114;   37.574;  -20.115;    0.000
570.699;   29.255;  -20.647;    0.000
571.284;   34.052;  -16.846;    0.000
571.870;   19.839;  -15.098;    0.000
572.455;   22.548;  -16.748;    0.000
573.040;   22.896;  -17.846;    0.000
573.625;   20.694;  -20.681;    0.000
574.209;   26.252;  -16.697;    0.000
574.794;   19.447;  -20.562;    0.000
575.379;   15.694;  -22.197;    0.000
575.964;   22.250;  -28.215;    0.000
576.549;   25.796;  -23.298;    0.000
577.134;   18.200;  -25.481;    0.000
577.718;   21.255;  -22.381;    0.000
578.303;   17.645;  -20.430;    0.000
578.888;   10.984;  -16.932;    0.000
579.472;   16.866;  -23.297;    0.000
580.057;   15.196;  -14.396;    0.000
580.641;   12.088;  -19.747;    0.000
581.226;    8.310;  -14.531;    0.000
581.810;    8.017;  -23.914;    0.000
582.395;   13.067;  -20.764;    0.000
582.979;    8.350;  -17.879;    0.000
583.564;    8.611;  -20.962;    0.000
584.148;    8.947;  -17.630;    0.000
584.732;    5.549;  -24.396;    0.000
585.317;   18.758;  -16.930;    0.000
585.901;   14.433;  -16.613;    0.000
586.485;   12.863;  -18.614;    0.000
587.069;   30.473;  -19.097;    0.000
587.653;   27.099;  -19.580;    0.000
588.237;   29.506;  -24.597;    0.000
588.821;   26.236;  -22.781;    0.000
589.405;   57.145;  -13.081;    0.000
589.989;   41.128;  -20.380;    0.000
590.573;   38.391;  -22.048;    0.000
591.157;   34.930;  -27.563;    0.000
591.741;   37.194;  -24.597;    0.000
592.325;   29.229;  -16.948;    0.000
592.909;   23.597;  -23.480;    0.000
593.492;   25.734;  -27.948;    0.000
594.076;   23.098;  -23.513;    0.000
594.660;   17.250;  -22.748;    0.000
595.244;   13.363;  -21.998;    0.000
595.827;   17.587;  -29.947;    0.000
596.411;    8.723;  -20.465;    0.000
596.994;   13.729;  -23.031;    0.000
597.578;   19.897;  -26.698;    0.000
598.161;   13.247;  -19.829;    0.000
598.745;   26.308;  -20.697;    0.000
599.328;   28.442;  -18.413;    0.000
599.911;   33.294;  -19.646;    0.000
600.495;   27.399;  -19.729;    0.000
601.078;   40.953;  -26.264;    0.000
601.661;   57.300;  -28.148;    0.000
602.245;   70.643;  -17.815;    0.000
602.828;   88.447;  -20.348;    0.000
603.411;   96.051;  -22.514;    0.000
603.994;   94.737;  -27.145;    0.000
604.577;  108.095;  -20.897;    0.000
605.160;  106.728;  -27.264;    0.000
605.743;  101.978;  -27.697;    0.000
606.326;   80.990;  -26.914;    0.000
606.909;   67.543;  -24.780;    0.000
607.492;   54.138;  -27.663;    0.000
608.075;   47.736;  -26.731;    0.000
608.658;   41.471;  -21.064;    0.000
609.240;   41.244;  -28.264;    0.000
609.823;   33.961;  -25.430;    0.000
610.406;   35.525;  -26.131;    0.000
610.989;   37.989;  -23.231;    0.000
611.571;   45.342;  -23.282;    0.000
612.154;   34.527;  -23.581;    0.000
612.736;   41.166;  -29.898;    0.000
613.319;   38.265;  -25.531;    0.000
613.901;   36.414;  -26.164;    0.000
614.484;   31.168;  -26.397;    0.000
615.066;   37.237;  -21.096;    0.000
615.649;   39.709;  -28.749;    0.000
616.231;   34.937;  -29.381;    0.000
616.813;   30.025;  -25.295;    0.000
617.396;   34.125;  -33.761;    0.000
617.978;   24.405;  -28.510;    0.000
618.560;   45.438;  -25.129;    0.000
619.142;   43.235;  -31.112;    0.000
619.724;   38.323;  -19.428;    0.000
620.306;   44.036;  -23.730;    0.000
620.889;   44.456;  -24.297;    0.000
621.471;   48.186;  -30.147;    0.000
622.053;   39.952;  -21.714;    0.000
622.635;   44.148;  -31.596;    0.000
623.216;   41.240;  -30.781;    0.000
623.798;   39.100;  -23.996;    0.000
624.380;   33.534;  -24.164;    0.000
624.962;   41.483;  -20.913;    0.000
625.544;   36.523;  -24.713;    0.000
626.125;   35.568;  -34.381;    0.000
626.707;   38.662;  -18.163;    0.000
627.289;   34.978;  -29.461;    0.000
627.870;   36.457;  -27.180;    0.000
628.452;   32.406;  -32.480;    0.000
629.034;   32.347;  -22.630;    0.000
629.615;   40.222;  -32.330;    0.000
630.197;   35.462;  -31.696;    0.000
630.778;   37.907;  -28.564;    0.000
631.359;   23.020;  -25.679;    0.000
631.941;   27.773;  -24.547;    0.000
632.522;   34.525;  -27.898;    0.000
633.103;   30.961;  -31.162;    0.000
633.685;   26.923;  -29.129;    0.000
634.266;   22.974;  -28.113;    0.000
634.847;   31.487;  -31.729;    0.000
635.428;   23.324;  -30.761;    0.000
636.009;   15.993;  -27.680;    0.000
636.590;   29.060;  -28.580;    0.000
637.171;   31.972;  -27.377;    0.000
637.752;   25.123;  -29.996;    0.000
638.333;   24.560;  -30.395;    0.000
638.914;   32.856;  -25.046;    0.000
639.495;   30.299;  -34.128;    0.000
640.076;   37.245;  -32.579;    0.000
640.657;   49.098;  -28.213;    0.000
641.238;   49.085;  -24.979;    0.000
641.818;   46.288;  -28.979;    0.000
642.399;   47.675;  -30.846;    0.000
642.980;   53.478;  -23.863;    0.000
643.560;   56.431;  -35.263;    0.000
644.141;   49.051;  -27.930;    0.000
644.721;   36.555;  -38.813;    0.000
645.302;   34.025;  -21.380;    0.000
645.882;   26.045;  -39.546;    0.000
646.463;   24.781;  -35.463;    0.000
647.043;   27.835;  -27.980;    0.000
647.624;   32.038;  -31.113;    0.000
648.204;   26.741;  -30.296;    0.000
648.784;   32.778;  -27.013;    0.000
649.365;   26.764;  -31.613;    0.000
649.945;   24.101;  -37.330;    0.000
650.525;   23.321;  -32.846;    0.000
651.105;   14.857;  -28.263;    0.000
651.685;   25.277;  -31.363;    0.000
652.265;   11.414;  -35.680;    0.000
652.845;   20.117;  -30.113;    0.000
653.425;   15.404;  -30.780;    0.000
654.005;   16.524;  -36.380;    0.000
654.585;   17.744;  -30.446;    0.000
655.165;   15.764;  -29.563;    0.000
655.745;    9.500;  -34.063;    0.000
656.325;    9.104;  -34.946;    0.000
656.905;   10.290;  -33.430;    0.000
657.484;   16.344;  -33.846;    0.000
658.064;    7.880;  -29.663;    0.000
658.644;   21.000;  -31.046;    0.000
659.223;   12.887;  -32.063;    0.000
659.803;   20.490;  -31.296;    0.000
660.382;   15.893;  -28.513;    0.000
660.962;   12.813;  -27.396;    0.000
661.541;    8.150;  -31.980;    0.000
662.121;   23.120;  -26.063;    0.000
662.700;   17.606;  -33.846;    0.000
663.280;    6.610;  -34.096;    0.000
663.859;    3.346;  -32.663;    0.000
664.438;    4.683;  -34.263;    0.000
665.017;   -6.380;  -36.113;    0.000
665.597;    9.673;  -27.347;    0.000
666.176;   29.093;  -34.097;    0.000
666.755;   52.196;  -36.397;    0.000
667.334;   53.699;  -30.147;    0.000
667.913;   49.919;  -31.913;    0.000
668.492;   53.656;  -31.063;    0.000
669.071;   46.792;  -35.063;    0.000
669.650;   50.679;  -31.347;    0.000
670.229;   37.949;  -37.980;    0.000
670.808;   11.869;  -34.297;    0.000
671.387;    5.122;  -35.747;    0.000
671.965;   -2.091;  -30.963;    0.000
672.544;    0.262;  -30.430;    0.000
673.123;   13.299;  -32.947;    0.000
673.702;   32.985;  -30.563;    0.000
674.280;   53.072;  -33.630;    0.000
674.859;   57.792;  -34.013;    0.000
675.437;   58.212;  -34.730;    0.000
676.016;   63.232;  -31.547;    0.000
676.594;   58.185;  -27.780;    0.000
677.173;   62.488;  -34.580;    0.000
677.751;   53.342;  -36.830;    0.000
678.330;   23.512;  -28.080;    0.000
678.908;   -0.985;  -26.680;    0.000
679.486;   -2.198;  -31.613;    0.000
680.065;   -1.095;  -35.513;    0.000
680.643;   -6.709;  -40.580;    0.000
681.221;   -6.689;  -32.680;    0.000
681.799;   -4.602;  -30.980;    0.000
682.377;   -0.782;  -34.813;    0.000
682.955;    1.371;  -30.547;    0.000
683.533;    1.908;  -35.847;    0.000
684.111;    1.261;  -35.130;    0.000
684.689;   -1.036;  -32.864;    0.000
685.267;   20.484;  -32.197;    0.000
685.845;   51.421;  -27.380;    0.000
686.423;   56.308;  -34.597;    0.000
687.001;   59.394;  -34.614;    0.000
687.579;   59.964;  -32.064;    0.000
688.156;   68.417;  -35.714;    0.000
688.734;   66.271;  -37.314;    0.000
689.312;   77.057;  -41.580;    0.000
689.889;   58.027;  -39.447;    0.000
690.467;   31.047;  -37.164;    0.000
691.044;   24.184;  -37.397;    0.000
691.622;   27.804;  -35.280;    0.000
692.199;   31.724;  -36.214;    0.000
692.777;   47.044;  -37.414;    0.000
693.354;   56.314;  -32.730;    0.000
693.932;   79.667;  -33.314;    0.000
694.509;  480.170;  -35.297;    0.000
695.086; 1977.957;  -30.714;    0.000
695.663; 2798.177;  -37.764;    0.000
696.241; 2821.480;  -35.214;    0.000
696.818; 2823.433;  -45.214;    0.000
697.395; 2836.870;  -37.930;    0.000
697.972; 2824.873;  -32.414;    0.000
698.549; 2768.943;  -34.330;    0.000
699.126; 2190.446;  -41.897;    0.000
699.703;  638.433;  -36.630;    0.000
700.280;  105.553;  -32.447;    0.000
700.857;   44.440;  -35.530;    0.000
701.434;   56.359;  -42.497;    0.000
702.010;   66.963;  -36.964;    0.000
702.587;   69.399;  -41.630;    0.000
703.164;   65.519;  -43.497;    0.000
703.741;   72.989;  -37.614;    0.000
704.317;  116.359;  -28.181;    0.000
704.894;  734.712;  -32.614;    0.000
705.471; 1816.916;  -35.397;    0.000
706.047; 2098.252;  -37.981;    0.000
706.624; 2081.272;  -31.647;    0.000
707.200; 2069.442;  -31.847;    0.000
707.776; 2078.379;  -39.964;    0.000
708.353; 2063.066;  -32.314;    0.000
708.929; 2014.385;  -35.497;    0.000
709.506; 1190.672;  -36.764;    0.000
710.082;  235.509;  -38.847;    0.000
710.658;   54.729;  -32.164;    0.000
711.234;   29.899;  -36.931;    0.000
711.810;   22.885;  -37.364;    0.000
712.387;   27.255;  -35.964;    0.000
712.963;   99.925;  -34.514;    0.000
713.539;  210.928;  -34.481;    0.000
714.115;  222.148;  -36.497;    0.000
714.691;  230.218;  -35.664;    0.000
715.267;  223.755;  -42.764;    0.000
715.842;  220.575;  -39.747;    0.000
716.418;  220.595;  -38.547;    0.000
716.994;  206.915;  -32.131;    0.000
717.570;  110.568;  -31.581;    0.000
718.146;   21.388;  -38.897;    0.000
718.721;    5.108;  -32.731;    0.000
719.297;    3.594;  -32.214;    0.000
719.873;    3.681;  -42.947;    0.000
720.448;   11.734;  -33.331;    0.000
721.024;   16.021;  -37.431;    0.000
721.599;   12.691;  -31.297;    0.000
722.175;   11.861;  -39.797;    0.000
722.750;   14.964;  -31.747;    0.000
723.325;   19.184;  -37.131;    0.000
723.901;   14.887;  -38.147;    0.000
724.476;    1.224;  -37.648;    0.000
725.051;   39.861;  -37.448;    0.000
725.627;  282.047;  -40.914;    0.000
726.202;  512.117;  -34.031;    0.000
726.777;  558.620;  -32.798;    0.000
727.352;  572.607;  -36.131;    0.000
727.927;  557.294;  -36.148;    0.000
728.502;  562.980;  -38.864;    0.000
729.077;  555.717;  -34.581;    0.000
729.652;  519.354;  -34.681;    0.000
730.227;  249.840;  -37.431;    0.000
730.802;   71.093;  -37.831;    0.000
731.377;   48.847;  -34.698;    0.000
731.951;   32.433;  -38.081;    0.000
732.526;   40.253;  -38.714;    0.000
733.101;   44.473;  -39.081;    0.000
733.676;   47.060;  -35.248;    0.000
734.250;   61.563;  -32.431;    0.000
734.825;   65.433;  -37.531;    0.000
735.399;   92.370;  -40.364;    0.000
735.974;  181.206;  -38.298;    0.000
736.548; 1108.593;  -34.164;    0.000
737.123; 2819.279;  -44.231;    0.000
737.697; 3384.249;  -33.898;    0.000
738.272; 3392.119;  -34.998;    0.000
738.846; 3344.873;  -33.464;    0.000
739.420; 3366.326;  -40.748;    0.000
739.994; 3318.446;  -39.131;    0.000
740.569; 3182.449;  -40.948;    0.000
741.143; 2024.019;  -36.914;    0.000
741.717;  479.989;  -35.048;    0.000
742.291;  141.859;  -38.881;    0.000
742.865;   97.212;  -34.964;    0.000
743.439;   90.382;  -27.964;    0.000
744.013;   86.586;  -30.914;    0.000
744.587;   87.672;  -35.731;    0.000
745.161;   91.192;  -32.115;    0.000
745.735;   88.012;  -32.431;    0.000
746.308;   98.965;  -31.898;    0.000
746.882;   95.569;  -32.465;    0.000
747.456;  123.505;  -36.381;    0.000
748.030;  248.575;  -37.698;    0.000
748.603; 1687.828;  -36.398;    0.000
749.177; 3839.898;  -30.981;    0.000
749.751; 5698.335;  -37.265;    0.000
750.324; 7270.288;  -34.348;    0.000
750.898; 7554.092;  -31.798;    0.000
751.471; 7529.411;  -38.015;    0.000
752.044; 7518.215;  -38.715;    0.000
752.618; 7282.418;  -33.348;    0.000
753.191; 5554.988;  -50.848;    0.000
753.764; 3519.791;  -38.948;    0.000
754.338; 1676.861;  -40.681;    0.000
754.911;  387.248;  -35.848;    0.000
755.484;  165.584;  -36.048;    0.000
756.057;  126.638;  -41.865;    0.000
756.630;  105.224;  -35.231;    0.000
757.203;  102.311;  -40.015;    0.000
757.776;  102.914;  -35.715;    0.000
758.349;  103.418;  -38.565;    0.000
758.922;  109.771;  -43.631;    0.000
759.495;  120.574;  -36.465;    0.000
760.068;  137.644;  -31.948;    0.000
760.641;  208.181;  -27.948;    0.000
761.214;  610.251;  -33.398;    0.000
761.786; 4425.904;  -44.448;    0.000
762.359; 8879.290;  -31.431;    0.000
762.932; 9929.877;  -30.631;    0.000
763.504;10124.764;  -32.281;    0.000
764.077;10030.434;  -42.398;    0.000
764.649; 9870.270;  -39.165;    0.000
765.222; 9840.290;  -34.032;    0.000
765.794; 9354.893;  -41.165;    0.000
766.367; 4796.547;  -36.448;    0.000
766.939;  949.467;  -35.898;    0.000
767.511;  258.137;  -33.282;    0.000
768.084;  160.323;  -33.932;    0.000
768.656;  120.093;  -27.598;    0.000
769.228;  123.247;  -33.415;    0.000
769.800;  136.416;  -34.382;    0.000
770.373;  671.086;  -34.048;    0.000
770.945; 2412.590;  -30.348;    0.000
771.517; 3372.410;  -31.048;    0.000
772.089; 3465.430;  -26.432;    0.000
772.661; 3469.783;  -35.748;    0.000
773.233; 3448.619;  -33.832;    0.000
773.805; 3438.239;  -41.665;    0.000
774.376; 3383.176;  -37.548;    0.000
774.948; 2673.013;  -38.115;    0.000
775.520;  906.683;  -33.115;    0.000
776.092;  184.636;  -34.398;    0.000
776.663;   85.072;  -30.882;    0.000
777.235;   65.742;  -34.932;    0.000
777.807;   43.662;  -32.098;    0.000
778.378;   46.382;  -33.065;    0.000
778.950;   37.719;  -34.465;    0.000
779.521;   35.572;  -25.932;    0.000
780.093;   36.859;  -28.465;    0.000
780.664;   24.045;  -44.282;    0.000
781.235;   16.249;  -30.482;    0.000
781.807;   14.685;  -36.898;    0.000
782.378;   20.322;  -32.698;    0.000
782.949;   15.775;  -32.582;    0.000
783.521;   21.979;  -30.582;    0.000
784.092;   18.515;  -28.165;    0.000
784.663;   10.685;  -33.399;    0.000
785.234;   18.622;  -35.299;    0.000
785.805;   14.792;  -33.032;    0.000
786.376;   18.445;  -30.232;    0.000
786.947;   30.148;  -39.815;    0.000
787.518;   27.201;  -39.082;    0.000
788.089;   34.471;  -35.332;    0.000
788.660;   32.375;  -33.815;    0.000
789.230;   32.328;  -30.649;    0.000
789.801;   41.648;  -36.849;    0.000
790.372;   42.335;  -44.682;    0.000
790.943;   52.171;  -32.915;    0.000
791.513;   63.724;  -28.515;    0.000
792.084;   71.544;  -35.532;    0.000
792.654;  311.631;  -27.349;    0.000
793.225; 1480.468;  -32.115;    0.000
793.795; 2421.171;  -30.665;    0.000
794.366; 2544.574;  -35.665;    0.000
794.936; 2545.011;  -35.065;    0.000
795.507; 2574.414;  -41.065;    0.000
796.077; 2550.634;  -33.932;    0.000
796.647; 2524.287;  -27.665;    0.000
797.217; 2207.691;  -31.999;    0.000
797.788; 1011.244;  -37.649;    0.000
798.358;  328.430;  -33.682;    0.000
798.928;  732.200;  -34.899;    0.000
799.498; 1686.754;  -29.299;    0.000
800.068; 3003.224;  -36.649;    0.000
800.638; 3594.660;  -36.349;    0.000
801.208; 3683.780;  -35.565;    0.000
801.778; 3688.433;  -31.082;    0.000
802.348; 3625.970;  -30.415;    0.000
802.917; 3543.307;  -32.849;    0.000
803.487; 2914.343;  -36.899;    0.000
804.057; 1951.463;  -27.215;    0.000
804.627;  680.183;  -35.416;    0.000
805.196;  212.220;  -26.549;    0.000
805.766;  145.290;  -29.632;    0.000
806.335;  128.060;  -28.582;    0.000
806.905;  142.896;  -33.682;    0.000
807.475;  161.283;  -27.699;    0.000
808.044;  296.436;  -34.832;    0.000
808.613; 1369.006;  -31.549;    0.000
809.183; 2942.876;  -35.299;    0.000
809.752; 6094.596;  -31.716;    0.000
810.321; 9868.649;  -31.982;    0.000
810.891;10984.936;  -33.232;    0.000
811.460;11033.056;  -27.999;    0.000
812.029;10897.342;  -29.932;    0.000
812.598;10625.812;  -33.466;    0.000
813.167; 9375.232;  -21.766;    0.000
813.736; 7697.219;  -33.932;    0.000
814.305; 4478.222;  -31.749;    0.000
814.874; 1066.042;  -38.632;    0.000
815.443;  263.846;  -36.099;    0.000
816.012;  136.649;  -37.982;    0.000
816.581;   82.652;  -40.349;    0.000
817.150;   66.089;  -32.432;    0.000
817.718;   63.209;  -30.699;    0.000
818.287;   53.712;  -32.216;    0.000
818.856;   39.215;  -31.949;    0.000
819.424;   50.435;  -36.399;    0.000
819.993;   38.338;  -29.482;    0.000
820.562;   35.008;  -33.749;    0.000
821.130;   29.495;  -24.749;    0.000
821.698;   33.598;  -35.566;    0.000
822.267;   31.752;  -34.099;    0.000
822.835;   25.155;  -39.532;    0.000
823.404;   38.058;  -32.249;    0.000
823.972;   74.411;  -32.016;    0.000
824.540;  476.998;  -37.466;    0.000
825.108; 1255.568;  -35.599;    0.000
825.677; 1575.821;  -31.249;    0.000
826.245; 1621.741;  -29.366;    0.000
826.813; 1605.461;  -36.333;    0.000
827.381; 1595.948;  -30.699;    0.000
827.949; 1565.051;  -34.616;    0.000
828.517; 1522.938;  -32.666;    0.000
829.085; 1104.941;  -31.099;    0.000
829.653;  331.728;  -33.299;    0.000
830.220;   70.864;  -35.699;    0.000
830.788;   36.584;  -34.966;    0.000
831.356;   19.837;  -30.999;    0.000
831.924;   20.591;  -35.399;    0.000
832.491;   23.877;  -34.249;    0.000
833.059;   20.597;  -26.333;    0.000
833.627;   24.017;  -35.533;    0.000
834.194;   23.637;  -38.649;    0.000
834.762;   24.107;  -34.999;    0.000
835.329;   34.777;  -29.249;    0.000
835.897;   38.897;  -35.399;    0.000
836.464;   42.684;  -29.583;    0.000
837.031;   53.853;  -37.449;    0.000
837.599;   56.340;  -31.149;    0.000
838.166;   95.927;  -26.583;    0.000
838.733;  511.480;  -35.099;    0.000
839.300; 1923.050;  -35.583;    0.000
839.867; 2887.270;  -35.749;    0.000
840.434; 3659.440;  -32.433;    0.000
841.001; 5471.826;  -30.633;    0.000
841.568; 6358.730;  -30.816;    0.000
842.135; 6498.866;  -28.616;    0.000
842.702; 6421.736;  -31.516;    0.000
843.269; 5979.540;  -24.599;    0.000
843.836; 4488.393;  -34.649;    0.000
844.403; 3612.929;  -30.300;    0.000
844.970; 2817.116;  -29.866;    0.000
845.536; 1062.036;  -32.700;    0.000
846.103;  229.856;  -38.950;    0.000
846.670;   81.009;  -34.833;    0.000
847.236;   48.913;  -33.283;    0.000
847.803;   33.182;  -32.883;    0.000
848.369;   29.236;  -33.700;    0.000
848.936;   23.039;  -39.116;    0.000
849.502;   41.559;  -28.416;    0.000
850.069;  221.846;  -40.683;    0.000
850.635;  810.499;  -36.350;    0.000
851.201; 1185.035;  -38.683;    0.000
851.767; 1241.805;  -30.183;    0.000
852.334; 1250.425;  -34.033;    0.000
852.900; 1225.762;  -28.883;    0.000
853.466; 1225.165;  -31.016;    0.000
854.032; 1191.435;  -30.583;    0.000
854.598;  992.555;  -33.883;    0.000
855.164;  410.958;  -28.933;    0.000
855.730;   80.778;  -31.750;    0.000
856.296;    4.648;  -34.750;    0.000
856.862;   -5.032;  -26.116;    0.000
857.428;  -11.628;  -29.183;    0.000
857.993;  -11.109;  -33.750;    0.000
858.559;  -17.572;  -36.200;    0.000
859.125;  -13.519;  -31.900;    0.000
859.690;  -10.015;  -32.500;    0.000
860.256;  -15.312;  -31.066;    0.000
860.822;  -11.225;  -33.683;    0.000
861.387;  -10.672;  -40.800;    0.000
861.953;  -10.002;  -32.816;    0.000
862.518;   -9.916;  -32.750;    0.000
863.083;  -14.646;  -39.716;    0.000
863.649;  -11.142;  -32.966;    0.000
864.214;  -23.006;  -34.683;    0.000
864.779;   21.614;  -37.850;    0.000
865.345;  131.134;  -26.217;    0.000
865.910;  187.054;  -34.067;    0.000
866.475;  188.424;  -35.567;    0.000
867.040;  196.627;  -36.767;    0.000
867.605;  192.247;  -36.867;    0.000
868.170;  182.017;  -28.133;    0.000
868.735;  187.154;  -32.117;    0.000
869.300;  136.557;  -32.483;    0.000
869.865;   44.460;  -39.617;    0.000
870.430;   -8.103;  -31.800;    0.000
870.995;  -23.766;  -31.833;    0.000
871.559;  -19.830;  -32.550;    0.000
872.124;  -28.127;  -36.867;    0.000
872.689;  -19.607;  -31.367;    0.000
873.253;  -22.820;  -38.433;    0.000
873.818;  -28.717;  -41.133;    0.000
874.382;  -18.367;  -37.433;    0.000
874.947;  -24.683;  -38.533;    0.000
875.511;  -24.983;  -30.867;    0.000
876.076;  -30.133;  -37.350;    0.000
876.640;  -22.133;  -36.450;    0.000
877.205;  -25.500;  -38.233;    0.000
877.769;  -27.300;  -35.433;    0.000
878.333;  -20.967;  -29.650;    0.000
878.897;  -23.600;  -40.933;    0.000
879.461;  -27.233;  -33.417;    0.000
880.026;  -23.883;  -37.117;    0.000
880.590;  -26.967;  -32.167;    0.000
881.154;  -28.183;  -32.000;    0.000
881.718;  -24.417;  -37.350;    0.000
882.282;  -26.200;  -35.967;    0.000
882.846;  -28.717;  -42.217;    0.000
883.409;  -30.433;  -44.900;    0.000
883.973;  -23.717;  -39.533;    0.000
884.537;  -24.700;  -35.650;    0.000
885.101;  -34.900;  -31.267;    0.000
885.664;  -28.033;  -35.867;    0.000
886.228;  -32.517;  -30.067;    0.000
886.792;  -38.533;  -33.750;    0.000
887.355;  -29.017;  -32.333;    0.000
887.919;  -30.433;  -36.083;    0.000
888.482;  -30.083;  -29.250;    0.000
889.046;  -30.283;  -32.933;    0.000
889.609;  -21.600;  -38.933;    0.000
890.172;  -33.600;  -33.167;    0.000
890.736;  -32.150;  -27.800;    0.000
891.299;  -33.233;  -28.850;    0.000
891.862;  -25.583;  -33.117;    0.000
892.425;  -32.350;  -31.250;    0.000
892.988;  -34.483;  -36.133;    0.000
893.552;  -33.717;  -34.333;    0.000
894.115;  -26.883;  -35.433;    0.000
894.678;  -37.400;  -26.650;    0.000
895.241;  -29.083;  -36.117;    0.000
895.803;  -29.050;  -41.867;    0.000
896.366;  -31.633;  -37.167;    0.000
896.929;  -24.517;  -33.117;    0.000
897.492;  -30.383;  -33.700;    0.000
898.055;  -34.883;  -30.083;    0.000
898.617;  -24.000;  -38.250;    0.000
899.180;  -30.000;  -35.500;    0.000
899.743;  -23.900;  -34.367;    0.000
900.305;  -29.750;  -38.833;    0.000
900.868;  -31.100;  -40.100;    0.000
901.430;  -31.933;  -37.917;    0.000
901.993;  -33.250;  -32.317;    0.000
902.555;  -26.450;  -36.767;    0.000
903.117;  -19.750;  -41.767;    0.000
903.680;  -20.533;  -41.567;    0.000
904.242;  -24.500;  -38.683;    0.000
904.804;  -18.033;  -32.667;    0.000
905.366;  -12.467;  -32.150;    0.000
905.929;  -19.467;  -40.167;    0.000
906.491;  -12.717;  -40.550;    0.000
907.053;  -23.817;  -36.600;    0.000
907.615;  -15.283;  -40.917;    0.000
908.177;   -7.233;  -35.650;    0.000
908.739;  -10.617;  -37.550;    0.000
909.300;   10.567;  -40.383;    0.000
909.862;   75.050;  -34.767;    0.000
910.424;  695.083;  -39.533;    0.000
910.986; 1693.300;  -42.367;    0.000
911.547; 2162.717;  -35.950;    0.000
912.109; 2204.000;  -39.050;    0.000
912.671; 2195.617;  -36.033;    0.000
913.232; 2187.150;  -48.233;    0.000
913.794; 2138.667;  -49.333;    0.000
914.355; 2067.683;  -40.183;    0.000
914.917; 1499.517;  -35.783;    0.000
915.478;  511.700;  -40.217;    0.000
916.039;   96.517;  -36.700;    0.000
916.601;   21.467;  -38.883;    0.000
917.162;   -4.217;  -39.050;    0.000
917.723;   -8.283;  -40.317;    0.000
918.284;   -3.167;  -35.933;    0.000
918.845;   -8.500;  -41.683;    0.000
919.407;   -5.483;  -39.467;    0.000
919.968;    4.067;  -35.783;    0.000
920.529;  136.417;  -38.250;    0.000
921.090;  378.550;  -34.983;    0.000
921.650;  496.783;  -41.917;    0.000
922.211;  518.567;  -39.383;    0.000
922.772;  501.600;  -38.067;    0.000
923.333;  503.750;  -44.983;    0.000
923.894;  476.500;  -33.100;    0.000
924.454;  445.833;  -43.317;    0.000
925.015;  339.617;  -35.750;    0.000
925.576;  111.317;  -40.117;    0.000
926.136;    5.267;  -37.733;    0.000
926.697;  -18.717;  -42.083;    0.000
927.257;  -20.300;  -34.200;    0.000
927.818;  -27.750;  -34.783;    0.000
928.378;  -19.667;  -40.567;    0.000
928.938;  -23.567;  -38.233;    0.000
929.499;  -32.017;  -42.250;    0.000
930.059;  -21.550;  -37.383;    0.000
930.619;  -33.700;  -36.033;    0.000
931.179;  -27.600;  -36.433;    0.000
931.739;  -30.533;  -44.267;    0.000
932.299;  -30.550;  -43.617;    0.000
932.859;  -33.150;  -45.917;    0.000
933.419;  -23.183;  -46.050;    0.000
933.979;   -2.917;  -35.617;    0.000
934.539;    9.533;  -43.400;    0.000
935.099;    6.050;  -37.733;    0.000
935.659;    9.683;  -44.467;    0.000
936.219;   -0.900;  -35.500;    0.000
936.778;    7.117;  -40.650;    0.000
937.338;    4.033;  -45.983;    0.000
937.898;    2.267;  -39.950;    0.000
938.457;  -28.067;  -42.000;    0.000
939.017;  -29.850;  -45.367;    0.000
939.576;  -37.117;  -41.433;    0.000
940.136;  -34.667;  -41.550;    0.000
940.695;  -39.583;  -44.167;    0.000
941.254;  -36.850;  -46.433;    0.000
941.814;  -36.333;  -39.250;    0.000
942.373;  -36.000;  -50.883;    0.000
942.932;  -38.300;  -42.350;    0.000
943.491;  -37.933;  -39.083;    0.000
944.051;  -43.217;  -42.200;    0.000
944.610;  -33.600;  -41.583;    0.000
945.169;  -41.150;  -36.733;    0.000
945.728;  -35.900;  -40.950;    0.000
946.287;  -40.133;  -41.883;    0.000
946.846;  -38.333;  -42.450;    0.000
947.404;  -37.700;  -45.400;    0.000
947.963;  -39.883;  -45.650;    0.000
948.522;  -41.200;  -44.750;    0.000
949.081;  -39.383;  -42.550;    0.000
949.639;  -32.950;  -42.567;    0.000
950.198;  -33.950;  -44.350;    0.000
950.757;  -38.317;  -37.500;    0.000
951.315;  -35.800;  -39.217;    0.000
951.874;  -43.683;  -42.333;    0.000
952.432;  -42.683;  -43.817;    0.000
952.991;  -37.433;  -49.750;    0.000
953.549;  -38.317;  -39.800;    0.000
954.107;  -38.033;  -43.783;    0.000
954.666;  -33.533;  -47.050;    0.000
955.224;  -41.183;  -45.233;    0.000
955.782;  -36.183;  -45.000;    0.000
956.340;  -41.350;  -40.533;    0.000
956.898;  -39.650;  -46.633;    0.000
957.456;  -36.417;  -41.067;    0.000
958.014;  -41.900;  -47.683;    0.000
958.572;  -37.067;  -35.517;    0.000
959.130;  -32.900;  -46.417;    0.000
959.688;  -35.867;  -49.167;    0.000
960.246;  -36.467;  -50.300;    0.000
960.804;  -39.467;  -42.017;    0.000
961.362;  -35.900;  -39.583;    0.000
961.919;  -29.867;  -39.967;    0.000
962.477;  -33.767;  -40.767;    0.000
963.035;  -36.533;  -46.100;    0.000
963.592;    5.233;  -44.917;    0.000
964.150;  143.900;  -41.700;    0.000
964.707;  259.517;  -41.217;    0.000
965.265;  294.500;  -49.150;    0.000
965.822;  309.583;  -49.167;    0.000
966.379;  305.817;  -42.283;    0.000
966.937;  296.250;  -44.733;    0.000
967.494;  287.500;  -51.483;    0.000
968.051;  261.733;  -49.050;    0.000
968.608;  139.450;  -43.533;    0.000
969.165;   17.683;  -47.100;    0.000
969.722;  -28.533;  -45.983;    0.000
970.279;  -26.567;  -43.017;    0.000
970.836;  -37.283;  -40.767;    0.000
971.393;  -39.900;  -40.350;    0.000
971.950;  -34.900;  -47.500;    0.000
972.507;  -40.250;  -51.417;    0.000
973.064;  -42.300;  -47.050;    0.000
973.621;  -39.717;  -45.583;    0.000
974.177;  -37.267;  -42.750;    0.000
974.734;  -35.783;  -48.850;    0.000
975.291;  -38.667;  -43.533;    0.000
975.847;  -37.017;  -47.583;    0.000
976.404;  -28.033;  -43.583;    0.000
976.960;    0.967;  -43.550;    0.000
977.517;   22.700;  -44.883;    0.000
978.073;   31.600;  -41.367;    0.000
978.629;   27.100;  -44.583;    0.000
979.186;   23.400;  -50.550;    0.000
979.742;   27.050;  -46.700;    0.000
980.298;   22.267;  -42.800;    0.000
980.854;   15.567;  -42.050;    0.000
981.411;   -3.567;  -50.017;    0.000
981.967;  -26.733;  -46.283;    0.000
982.523;  -34.467;  -48.317;    0.000
983.079;  -41.233;  -47.817;    0.000
983.635;  -37.450;  -45.067;    0.000
984.190;  -37.200;  -50.200;    0.000
984.746;  -42.883;  -49.183;    0.000
985.302;  -32.033;  -44.583;    0.000
985.858;  -42.200;  -48.517;    0.000
986.414;  -40.317;  -49.217;    0.000
986.969;  -41.567;  -47.433;    0.000
987.525;  -39.317;  -42.367;    0.000
988.080;  -35.133;  -48.533;    0.000
988.636;  -45.983;  -44.783;    0.000
989.192;  -41.317;  -46.317;    0.000
989.747;  -40.483;  -42.717;    0.000
990.302;  -38.683;  -46.483;    0.000
990.858;  -48.633;  -47.117;    0.000
991.413;  -36.583;  -47.800;    0.000
991.968;  -42.417;  -46.183;    0.000
992.523;  -36.117;  -50.283;    0.000
993.079;  -47.000;  -46.550;    0.000
993.634;  -45.100;  -44.317;    0.000
994.189;  -45.500;  -50.267;    0.000
994.744;  -38.217;  -50.833;    0.000
995.299;  -35.000;  -48.917;    0.000
995.854;  -46.900;  -44.483;    0.000
996.409;  -39.000;  -48.067;    0.000
996.963;  -37.967;  -47.000;    0.000
997.518;  -42.550;  -47.100;    0.000
998.073;  -44.550;  -52.150;    0.000
998.628;  -42.700;  -45.983;    0.000
999.182;  -43.950;  -53.983;    0.000
999.737;  -42.617;  -48.733;    0.000
1000.292;  -43.600;  -43.817;    0.000
1000.846;  -36.250;  -48.667;    0.000
1001.401;  -40.683;  -47.483;    0.000
1001.955;  -42.950;  -48.200;    0.000
1002.509;  -37.550;  -53.300;    0.000
1003.064;  -38.583;  -44.883;    0.000
1003.618;  -44.450;  -41.183;    0.000
1004.172;  -54.233;  -49.917;    0.000
1004.726;  -41.467;  -49.200;    0.000
1005.281;  -37.983;  -46.167;    0.000
1005.835;  -43.000;  -52.733;    0.000
1006.389;  -34.283;  -48.967;    0.000
1006.943;  -44.367;  -47.583;    0.000
1007.497;  -38.433;  -44.217;    0.000
1008.051;  -46.583;  -51.717;    0.000
1008.605;  -39.883;  -54.317;    0.000
1009.158;  -38.983;  -49.517;    0.000
1009.712;  -42.883;  -48.000;    0.000
1010.266;  -44.833;  -52.817;    0.000
1010.820;  -43.400;  -45.300;    0.000
1011.373;  -44.650;  -42.683;    0.000
1011.927;  -42.133;  -41.433;    0.000
1012.480;  -37.650;  -49.167;    0.000
1013.034;  -43.200;  -53.567;    0.000
1013.587;  -42.583;  -54.350;    0.000
1014.141;  -37.450;  -44.633;    0.000
1014.694;  -48.850;  -49.900;    0.000
1015.248;  -47.633;  -57.983;    0.000
1015.801;  -47.750;  -47.183;    0.000
1016.354;  -45.817;  -43.833;    0.000
1016.907;  -36.633;  -55.350;    0.000
1017.460;  -48.667;  -49.733;    0.000
1018.013;  -40.683;  -52.117;    0.000
1018.567;  -44.183;  -43.217;    0.000
1019.120;  -49.867;  -52.550;    0.000
1019.672;  -38.833;  -52.033;    0.000
1020.225;  -37.817;  -48.050;    0.000
1020.778;  -42.317;  -50.717;    0.000
1021.331;  -46.300;  -54.867;    0.000
1021.884;  -40.733;  -47.200;    0.000
1022.437;  -40.833;  -48.767;    0.000
1022.989;  -48.617;  -42.700;    0.000
1023.542;  -46.850;  -47.917;    0.000
1024.094;  -44.000;  -46.067;    0.000
1024.647;  -45.733;  -58.900;    0.000
1025.199;  -44.583;  -48.467;    0.000
1025.752;  -38.533;  -48.850;    0.000
1026.304;  -49.233;  -49.217;    0.000
1026.857;  -39.333;  -49.000;    0.000
1027.409;  -42.817;  -44.883;    0.000
1027.961;  -42.183;  -59.417;    0.000
1028.513;  -39.200;  -50.950;    0.000
1029.066;  -45.950;  -44.767;    0.000
1029.618;  -44.017;  -46.933;    0.000
1030.170;  -45.317;  -52.417;    0.000
1030.722;  -42.483;  -49.183;    0.000
1031.274;  -47.117;  -54.050;    0.000
1031.826;  -41.183;  -46.133;    0.000
1032.378;  -39.117;  -48.500;    0.000
1032.929;  -44.383;  -56.783;    0.000
1033.481;  -41.117;  -52.333;    0.000
1034.033;  -46.750;  -47.100;    0.000
1034.585;  -42.067;  -42.650;    0.000
1035.136;  -38.683;  -60.883;    0.000
1035.688;  -46.300;  -51.050;    0.000
1036.239;  -38.533;  -48.017;    0.000
1036.791;  -42.600;  -49.000;    0.000
1037.342;  -40.300;  -47.133;    0.000
1037.894;  -44.017;  -55.517;    0.000
1038.445;  -37.633;  -42.933;    0.000
1038.996;  -47.333;  -51.433;    0.000
1039.548;  -39.517;  -49.617;    0.000
1040.099;  -43.767;  -50.567;    0.000
1040.650;  -45.900;  -49.267;    0.000
1041.201;  -47.917;  -45.617;    0.000
1041.752;  -39.467;  -46.200;    0.000
1042.303;  -44.700;  -46.733;    0.000
1042.854;  -41.033;  -48.300;    0.000
1043.405;  -44.283;  -54.917;    0.000
1043.956;  -44.767;  -52.367;    0.000
1044.507;  -43.150;  -46.950;    0.000
1045.058;  -43.000;  -48.783;    0.000
1045.609;  -40.683;  -51.467;    0.000
1046.159;  -35.867;  -54.783;    0.000
1046.710;  -33.933;  -50.900;    0.000
1047.261;  -35.533;  -46.633;    0.000
1047.811;  -32.967;  -49.617;    0.000
1048.362;  -32.133;  -52.150;    0.000
1048.912;  -22.633;  -46.683;    0.000
1049.463;  -37.267;  -46.600;    0.000
1050.013;  -35.433;  -50.700;    0.000
1050.563;  -39.333;  -48.617;    0.000
1051.114;  -44.250;  -54.267;    0.000
1051.664;  -44.433;  -48.350;    0.000
1052.214;  -35.617;  -48.567;    0.000
1052.764;  -37.367;  -46.350;    0.000
1053.314;  -51.083;  -53.133;    0.000
1053.864;  -45.100;  -39.217;    0.000
1054.414;  -44.417;  -53.533;    0.000
1054.964;  -44.050;  -50.500;    0.000
1055.514;  -42.633;  -49.817;    0.000
1056.064;  -46.933;  -42.683;    0.000
1056.614;  -42.633;  -47.750;    0.000
1057.163;  -44.350;  -43.683;    0.000
1057.713;  -49.000;  -50.233;    0.000
1058.263;  -42.750;  -47.217;    0.000
1058.812;  -42.583;  -53.150;    0.000
1059.362;  -50.717;  -49.483;    0.000
1059.912;  -47.350;  -56.533;    0.000
1060.461;  -48.533;  -48.733;    0.000
1061.010;  -43.983;  -45.517;    0.000
1061.560;  -49.200;  -56.100;    0.000
1062.109;  -42.783;  -51.183;    0.000
1062.658;  -43.200;  -52.283;    0.000
1063.208;  -47.400;  -45.833;    0.000
1063.757;  -50.400;  -49.067;    0.000
1064.306;  -35.567;  -46.850;    0.000
1064.855;  -45.783;  -45.400;    0.000
1065.404;  -36.433;  -48.450;    0.000
1065.953;  -40.917;  -54.300;    0.000
1066.502;  -43.600;  -51.883;    0.000
1067.051;  -36.333;  -54.617;    0.000
1067.600;  -38.417;  -49.633;    0.000
1068.149;  -42.783;  -48.167;    0.000
1068.698;  -41.967;  -45.717;    0.000
1069.246;  -36.083;  -49.917;    0.000
1069.795;  -41.883;  -53.050;    0.000
1070.344;  -43.850;  -51.617;    0.000
1070.892;  -41.517;  -49.900;    0.000
1071.441;  -43.050;  -45.600;    0.000
1071.989;  -41.617;  -48.617;    0.000
1072.538;  -45.583;  -52.667;    0.000
1073.086;  -43.550;  -48.067;    0.000
1073.634;  -45.750;  -51.983;    0.000
1074.183;  -51.000;  -52.817;    0.000
1074.731;  -46.650;  -48.450;    0.000
1075.279;  -43.850;  -48.533;    0.000
1075.827;  -47.317;  -46.600;    0.000
1076.375;  -44.117;  -52.367;    0.000
1076.923;  -48.817;  -49.450;    0.000
1077.471;  -46.517;  -50.283;    0.000
1078.019;  -48.117;  -47.267;    0.000
1078.567;  -44.100;  -46.383;    0.000
1079.115;  -50.533;  -52.383;    0.000
1079.663;  -52.083;  -55.600;    0.000
1080.210;  -46.917;  -45.400;    0.000
1080.758;  -43.750;  -53.333;    0.000
1081.306;  -44.633;  -45.667;    0.000
1081.853;  -46.683;  -45.550;    0.000
1082.401;  -42.983;  -46.683;    0.000
1082.949;  -47.850;  -54.317;    0.000
1083.496;  -43.033;  -54.467;    0.000
1084.043;  -45.183;  -49.267;    0.000
1084.591;  -43.433;  -48.650;    0.000
1085.138;  -48.750;  -49.767;    0.000
1085.685;  -43.667;  -46.483;    0.000
1086.233;  -47.900;  -49.050;    0.000
1086.780;  -43.933;  -45.933;    0.000
1087.327;  -43.783;  -50.050;    0.000
1087.874;  -46.317;  -46.500;    0.000
1088.421;  -43.850;  -49.017;    0.000
1088.968;  -48.700;  -39.133;    0.000
1089.515;  -52.750;  -48.683;    0.000
1090.062;  -44.133;  -48.117;    0.000
1090.609;  -47.267;  -44.133;    0.000
1091.156;  -42.850;  -41.617;    0.000
1091.702;  -49.750;  -50.267;    0.000
1092.249;  -50.817;  -44.767;    0.000
1092.796;  -45.067;  -49.750;    0.000
1093.342;  -46.950;  -47.150;    0.000
1093.889;  -47.783;  -43.250;    0.000
1094.435;  -46.733;  -49.733;    0.000
1094.982;  -46.100;  -48.183;    0.000
1095.528;  -47.050;  -51.900;    0.000
1096.075;  -50.050;  -49.817;    0.000
1096.621;  -43.683;  -46.250;    0.000
1097.167;  -54.633;  -46.067;    0.000
1097.713;  -53.117;  -42.033;    0.000
1098.259;  -49.050;  -51.100;    0.000
1098.806;  -48.450;  -43.983;    0.000
1099.352;  -47.133;  -48.200;    0.000
1099.898;  -50.450;  -46.067;    0.000
1100.444;  -50.900;  -53.550;    0.000

