H
Integration time [ms]: 100.000
Averaging Nr. [scans]: 100
Smoothing Nr. [pixels]: 0
Data measured with spectrometer [name]: 1701237U1
Wave   ;Sample   ;Dark     ;Reference
[nm]   ;[counts] ;[counts] ;[counts] 

173.876;   -3.970;   -2.780;   -2.798
174.482;   -3.907;   -5.410;  -59.165
175.087;    4.808;    6.450;  -23.712
175.693;    8.214;    0.490;   32.370
176.298;    3.630;    8.660;   69.717
176.903;   -1.464;   -6.900;  -49.284
177.509;    0.508;    1.210;   11.406
178.114;    3.643;   -3.120;    6.531
178.719;   -2.334;   -8.520;  -62.420
179.325;   -2.949;   -7.780;  -47.591
179.930;   -4.658;   -6.940;  -35.173
180.535;    0.018;   -1.100;  -24.761
181.140;    2.640;    0.600;   27.185
181.745;   10.117;    7.490;   85.469
182.351;   -0.982;   -3.660;  -38.660
182.956;    1.086;    2.420;   66.529
183.561;    6.679;   -3.700;    7.015
184.166;   21.704;   21.560;  194.655
184.771;    4.188;   -6.410;  -22.411
185.376;   -5.607;   -7.710;  -43.265
185.981;    7.933;    7.870;   65.116
186.586;   -4.654;    1.790;  -37.836
187.191;    0.534;   -4.840;   -9.027
187.796;    5.320;    6.600;   29.804
188.400;    6.346;   -3.370;   15.448
189.005;   -1.517;    3.960;    5.133
189.610;   -7.405;   -7.320;  -59.172
190.215;   -2.110;  -10.760;  -55.463
190.820;   -6.339;  -12.010;  -74.141
191.424;   -4.351;   -9.750;  -41.935
192.029;   -7.241;   -6.750;  -49.172
192.634;  -10.053;  -10.000;  -36.678
193.238;    0.277;    0.370;   36.335
193.843;   -8.036;   -6.830;  -59.907
194.448;   -2.443;   -4.830;  -21.429
195.052;   -3.969;   -5.060;  -19.141
195.657;   -3.332;   -8.490;   -4.174
196.261;   -9.686;   -5.450;   -8.043
196.866;   -3.804;  -10.220;  -55.167
197.470;    1.209;   -1.090;   14.862
198.075;   -6.256;  -14.920;  -66.541
198.679;   -8.056;   -7.320;  -78.662
199.284;   -6.220;   -3.720;  -16.629
199.888;   -1.170;   -1.310;   -7.798
200.492;   -1.176;   -5.020;    2.708
201.097;    6.628;    0.640;   62.658
201.701;   -4.327;   -6.350;   -0.964
202.305;  -10.527;  -10.130;  -71.285
202.909;   -7.038;    0.190;   21.447
203.514;   -2.322;   -6.380;   -9.343
204.118;   -5.602;   -2.980;   -6.758
204.722;    3.446;    1.440;   53.395
205.326;   -1.157;   -8.560;  -27.252
205.930;   -2.189;   -7.400;  -46.177
206.534;   -7.790;   -4.430;  -28.565
207.138;   -5.810;   -9.230;  -75.647
207.742;    1.241;   -3.600;    0.422
208.346;   -4.822;   -4.160;  -38.455
208.950;    0.210;   -0.210;   -9.580
209.554;   26.000;   24.130;  271.803
210.158;   -9.722;   -8.250;  -66.105
210.762;    0.879;   -3.530;  -31.502
211.366;  -10.220;  -12.940;  -79.200
211.970;   -2.067;   -4.990;  -26.432
212.574;   -4.625;   -6.120;   -9.889
213.177;   -8.552;  -10.440;  -56.542
213.781;   -5.874;   -9.450;  -67.716
214.385;   22.010;   19.450;  210.838
214.989;   -0.292;    0.170;   30.175
215.592;    1.996;   -3.500;  -17.219
216.196;   -6.066;  -14.400;  -75.925
216.800;   -5.385;   -7.900;  -57.321
217.403;    7.288;   -0.740;   24.728
218.007;    0.373;   -5.780;    5.370
218.610;   -0.454;  -11.270;  -76.948
219.214;   -5.960;   -8.470;  -54.847
219.817;   21.160;   18.080;  181.134
220.421;   -5.751;   -9.740;  -73.351
221.024;   -1.370;   -7.630;  -45.878
221.628;   -2.182;  -15.840;  -72.503
222.231;  -12.474;  -14.630;  -92.852
222.834;   -7.241;  -10.020;  -50.385
223.438;  -10.427;   -9.880;  -59.469
224.041;   -3.122;   -6.390;   -9.237
224.644;   -3.016;  -12.720;  -42.894
225.248;   -5.171;   -5.070;  -18.017
225.851;   -4.328;   -8.200;  -37.390
226.454;   -3.134;  -10.810;  -38.519
227.057;   13.868;    3.770;  130.509
227.660;    7.110;    5.880;  119.902
228.263;   -6.613;   -7.240;    7.137
228.866;   -1.053;   -4.360;  -19.348
229.470;    4.859;    0.300;   61.495
230.073;   -9.254;   -0.640;  -23.268
230.676;    2.243;   -1.290;   80.885
231.279;   -4.225;   -1.670;   -2.989
231.882;   16.036;   22.200;  243.218
232.484;   -5.028;  -10.900;  -17.337
233.087;   -2.949;   -7.130;  -14.192
233.690;   -8.201;  -11.440;  -61.820
234.293;    8.109;   -1.230;   79.648
234.896;   -1.035;   -5.910;   -5.038
235.499;   -4.602;   -7.460;  -13.839
236.101;  -11.020;   -8.360;  -59.450
236.704;   -4.974;   -5.610;  -20.751
237.307;   -7.566;   -9.830;  -53.975
237.910;  -10.065;  -10.470;  -79.472
238.512;   -9.199;   -9.880;  -56.993
239.115;   -9.881;   -8.820;  -34.604
239.717;   -9.967;  -13.820;  -72.531
240.320;   -9.985;  -10.330;  -67.742
240.923;    2.376;   -0.750;   44.615
241.525;   -0.737;   -7.220;   11.786
242.128;    0.137;   -2.120;   27.007
242.730;   -6.020;   -7.090;  -34.966
243.332;   -7.093;    0.030;    8.067
243.935;    1.075;   -0.780;   42.544
244.537;    3.379;   -2.060;   48.529
245.140;  -11.902;  -13.350;  -74.293
245.742;    5.445;    6.480;   59.030
246.344;   -6.523;  -11.770;  -55.948
246.946;   -9.846;  -14.850;  -58.942
247.549;   -8.954;  -11.000;  -71.282
248.151;   -6.729;  -11.730;  -48.124
248.753;    1.620;   -5.690;   39.503
249.355;   -8.679;   -6.280;  -19.274
249.957;   -7.509;  -11.010;  -69.908
250.559;   -4.014;   -4.080;    3.618
251.161;   -1.710;   -8.160;  -13.733
251.764;    3.347;   -1.600;   44.621
252.366;    4.161;    1.700;   17.906
252.968;   -4.822;  -13.980;  -28.426
253.570;   -5.281;   -6.800;  -32.438
254.171;   -2.775;    0.420;   12.527
254.773;   -0.099;   -0.570;    7.455
255.375;  -10.915;  -14.900;  -59.807
255.977;   -7.284;  -11.510;  -45.536
256.579;    3.151;   -2.780;   46.088
257.181;   -5.812;  -14.930;  -83.159
257.782;   -6.982;   -6.460;  -23.740
258.384;   -7.352;  -16.310;  -63.455
258.986;  -10.968;  -10.670;  -94.471
259.588;   -7.711;  -10.960;  -31.867
260.189;   -5.204;   -6.530;  -65.317
260.791;   -4.834;  -10.630;    6.334
261.392;   15.335;   10.230;  143.693
261.994;  -16.236;  -11.890;  -80.544
262.596;   -5.725;   -8.450;  -25.090
263.197;   -6.557;   -8.250;  -32.718
263.799;  -10.461;  -10.140;  -76.016
264.400;  -13.993;  -10.670;  -91.814
265.002;   -1.302;   -0.860;   34.745
265.603;   -9.940;   -7.490;  -66.666
266.204;   -7.389;   -6.090;  -14.742
266.806;  -10.521;   -7.250;  -47.201
267.407;  -12.055;  -11.350;  -41.271
268.008;    4.412;    4.200;  111.643
268.610;  -12.095;  -11.550;  -57.206
269.211;  -10.516;  -18.420;  -81.109
269.812;   -9.427;  -14.320;  -53.850
270.413;   -3.991;   -5.180;   18.462
271.014;   -8.274;   -5.700;    1.450
271.615;   -7.868;    0.400;    6.779
272.217;   -9.919;   -6.550;  -50.593
272.818;    4.937;   -2.710;   55.787
273.419;    0.747;   -0.910;   55.239
274.020;   -4.131;  -10.490;  -32.901
274.621;   -9.577;   -7.760;  -30.184
275.222;   -9.659;  -18.230;  -73.942
275.823;   -4.535;   -7.510;  -36.305
276.423;   -8.035;  -14.430;  -50.270
277.024;  -12.359;  -13.960;  -54.608
277.625;   -2.044;   -9.450;    1.084
278.226;   -4.904;  -10.880;  -24.499
278.827;   -5.945;   -5.760;   10.376
279.427;    5.315;   -0.070;   88.495
280.028;   -0.665;  -10.900;  -49.022
280.629;   -5.853;  -11.670;  -47.061
281.230;   11.408;   -1.780;   96.441
281.830;  -10.477;  -10.370;  -57.282
282.431;   31.527;   20.920; 2673.655
283.031;    3.219;   -2.330;   71.697
283.632;  -12.734;  -14.620;  -59.965
284.233;   -7.166;   -9.810;  -26.708
284.833;    0.864;   -6.610;   21.841
285.434;   -5.191;    0.600;   45.263
286.034;   -9.357;  -15.180;  -72.515
286.634;   -0.884;   -9.380;  -13.899
287.235;   -6.701;   -9.530;  -57.871
287.835;   -9.909;  -10.680;  -64.944
288.435;   -0.080;   -7.430;  -16.399
289.036;  -11.218;  -12.710;  -86.437
289.636;   -8.770;  -17.980;  -69.132
290.236;   -5.073;   -9.340;  -45.527
290.837;   -2.873;  -13.190;  -72.181
291.437;   -8.547;   -5.660;   19.249
292.037;   -5.345;   -8.790;  -15.056
292.637;    2.381;    3.610;   56.088
293.237;   -9.077;  -11.070;    1.350
293.837;   -3.154;   -6.000;  -21.668
294.437;   -2.064;   -0.740;   32.685
295.037;   -5.619;   -9.240;  -65.762
295.637;  -13.346;   -8.980;  -47.827
296.237;   -8.746;   -5.500;  -41.761
296.837;   -8.448;  -14.600;   -9.154
297.437;  -11.252;  -10.780;  -51.156
298.037;   -8.693;  -16.250;  -63.397
298.637;   -9.616;  -17.130;  -61.696
299.237;   -9.213;   -9.140;  -35.230
299.836;   -5.486;   -6.080;   20.837
300.436;   -9.480;   -9.080;    8.803
301.036;   -9.264;  -12.650;  -35.352
301.636;   -7.594;  -17.700;  -42.433
302.235;   -3.722;   -6.290;    3.477
302.835;  -11.223;  -13.590;  -36.949
303.434;   -6.943;  -10.440;  -25.413
304.034;   -6.917;  -18.310;  -28.963
304.634;   -9.019;  -17.790;  -33.691
305.233;   -6.500;  -14.300;  -14.614
305.833;   -7.041;  -11.950;  -30.569
306.432;   -2.721;  -17.040;   40.163
307.032;    7.716;   -6.920;   90.285
307.631;    7.169;   -9.320;  110.148
308.230;    6.357;    1.780;  149.221
308.830;    5.306;  -12.430;   94.483
309.429;    2.742;  -22.650;   62.782
310.028;    5.392;   -8.610;  123.362
310.628;    7.654;  -10.170;  137.608
311.227;    4.771;  -15.940;   95.810
311.826;   13.509;   -9.640;  144.979
312.425;    1.432;  -11.670;   90.013
313.024;   10.945;   -5.840;  180.463
313.623;   -1.210;  -15.520;   62.818
314.223;   15.918;   -6.660;  170.660
314.822;   17.045;   -0.190;  227.011
315.421;    9.032;   -7.880;  176.013
316.020;    9.065;  -11.110;  145.209
316.619;    9.259;   -7.470;  167.601
317.218;    9.491;  -12.950;  118.010
317.816;    5.283;  -11.710;  142.319
318.415;   55.850;   33.090;  567.718
319.014;   12.723;   -1.930;  179.233
319.613;   11.581;   -4.960;  156.193
320.212;    7.993;  -12.570;  116.151
320.811;   11.306;   -9.880;  161.751
321.409;   26.679;    2.690;  249.631
322.008;    6.495;  -19.420;   98.677
322.607;    5.548;   -9.280;  138.412
323.205;   13.322;  -15.920;  123.396
323.804;    5.642;  -14.630;   84.866
324.403;    8.103;  -19.180;  135.189
325.001;    6.477;  -13.880;  117.591
325.600;   17.348;  -12.930;  195.644
326.198;    9.860;  -10.970;  157.754
326.797;    6.817;  -13.730;  128.540
327.395;   12.472;   -6.400;  223.216
327.994;   27.206;    3.340;  331.536
328.592;   10.584;  -17.210;  176.012
329.190;   75.490;   50.760;  822.294
329.789;   12.251;  -16.370;  160.947
330.387;   28.739;    6.340;  384.620
330.985;   14.051;  -16.030;  169.947
331.583;    7.155;  -16.230;  159.703
332.182;   12.270;  -10.630;  197.361
332.780;   22.609;    1.440;  327.521
333.378;   24.763;    0.890;  334.910
333.976;    8.876;  -19.620;  165.644
334.574;   16.764;   -8.940;  283.881
335.172;   14.467;  -12.580;  212.679
335.770;   21.219;  -10.050;  285.925
336.368;   35.674;    1.120;  467.182
336.966;    8.354;  -16.800;  226.963
337.564;   13.951;  -15.270;  240.583
338.162;   24.983;   -0.870;  373.544
338.760;   28.213;   -6.450;  348.839
339.358;   20.978;  -10.400;  254.084
339.956;   19.180;   -1.640;  315.410
340.554;   14.721;  -11.520;  274.796
341.151;   15.720;  -11.280;  286.643
341.749;   21.085;    3.150;  370.833
342.347;   11.964;  -19.010;  240.798
342.944;   23.583;   -5.640;  334.310
343.542;   15.951;  -13.200;  263.417
344.140;   10.760;   -7.360;  228.430
344.737;   20.256;  -13.350;  283.311
345.335;   31.423;   -0.940;  382.909
345.932;   21.203;   -7.740;  319.593
346.530;   15.908;  -11.770;  244.884
347.127;   18.426;   -6.520;  332.307
347.725;   16.000;  -10.030;  304.092
348.322;   23.457;  -10.540;  372.496
348.920;   24.164;    0.240;  362.066
349.517;   21.103;  -10.010;  323.692
350.114;   36.622;    1.090;  467.872
350.712;   17.427;  -16.890;  307.926
351.309;   26.989;   -4.300;  374.902
351.906;   14.848;  -16.280;  314.583
352.503;   27.787;   -7.980;  378.813
353.100;   25.206;   -8.820;  383.641
353.698;   23.063;   -5.640;  382.573
354.295;   82.956;   47.730;  936.222
354.892;   28.630;   -5.900;  400.695
355.489;   18.672;  -11.880;  356.600
356.086;   29.922;   -1.870;  460.636
356.683;   21.408;  -17.260;  340.581
357.280;   24.499;  -11.420;  361.722
357.877;   28.960;   -5.000;  437.061
358.474;   18.295;  -20.730;  312.352
359.070;   29.978;   -1.630;  441.865
359.667;   21.887;  -11.350;  355.894
360.264;   26.116;  -17.650;  406.991
360.861;   25.023;  -14.820;  396.940
361.458;   33.632;   -5.320;  467.084
362.054;   36.643;   -6.230;  484.591
362.651;   32.861;  -12.010;  429.581
363.248;   27.981;  -15.860;  373.931
363.844;   25.342;  -17.480;  387.284
364.441;   24.869;  -11.740;  453.636
365.037;   30.918;  -12.760;  432.900
365.634;   33.949;  -14.340;  418.005
366.230;   33.842;  -18.150;  483.051
366.827;   35.099;  -12.670;  477.422
367.423;   28.305;  -14.460;  465.885
368.020;   33.359;  -18.250;  435.871
368.616;   41.344;   -5.750;  553.664
369.213;   38.155;   -6.050;  559.034
369.809;   72.346;   20.390;  855.489
370.405;   26.557;  -21.830;  448.608
371.001;   29.970;  -10.900;  480.509
371.598;   37.072;   -6.400;  532.868
372.194;   29.566;  -16.440;  472.874
372.790;   31.793;  -10.600;  460.605
373.386;   41.500;   -8.150;  556.558
373.982;   28.354;  -12.920;  503.598
374.578;   40.318;  -14.640;  533.116
375.174;   36.467;   -6.470;  566.446
375.770;   45.144;    1.860;  689.563
376.366;   29.273;  -19.430;  468.143
376.962;   43.624;   -8.240;  617.747
377.558;   38.219;   -6.660;  611.420
378.154;   36.038;   -9.690;  555.164
378.750;   46.874;   -6.910;  630.762
379.346;   35.905;  -15.820;  578.667
379.942;   45.322;  -12.960;  626.438
380.537;   32.850;  -13.590;  547.313
381.133;   30.864;  -18.470;  536.995
381.729;   38.432;   -9.190;  590.599
382.325;   35.725;  -19.480;  569.165
382.920;   38.845;  -21.830;  550.666
383.516;   40.768;  -16.250;  586.998
384.111;   38.274;  -17.100;  601.999
384.707;   41.470;  -15.840;  648.979
385.302;   50.232;  -10.560;  740.470
385.898;   50.255;   -2.310;  750.268
386.493;   41.451;  -13.660;  655.366
387.089;   55.589;   -3.690;  831.341
387.684;   47.427;  -17.850;  727.342
388.280;   42.926;  -20.210;  694.390
388.875;   97.692;   26.630; 1156.803
389.470;   52.701;  -16.880;  735.932
390.066;   62.005;   -5.940;  795.666
390.661;   50.318;  -19.990;  681.850
391.256;   53.192;  -15.310;  721.955
391.851;   46.974;  -15.200;  614.047
392.446;   44.943;  -11.250;  613.759
393.041;   36.960;  -15.920;  570.658
393.637;   33.958;  -14.790;  551.315
394.232;   45.605;  -13.000;  642.501
394.827;   41.578;  -19.880;  614.699
395.422;   68.978;   -8.100;  829.449
396.017;   90.119;  -11.350; 1039.421
396.612;   79.720;  -18.570;  957.493
397.206;   83.235;  -15.150; 1011.350
397.801; 1621.676; 1518.180;16853.839
398.396;  111.005;    6.480; 1129.267
398.991;   88.465;  -13.980; 1007.102
399.586;   64.411;  -21.490;  876.733
400.180;   49.946;  -16.800;  720.055
400.775;   42.646;  -19.570;  654.041
401.370;   41.682;  -17.880;  649.201
401.965;   35.103;  -19.910;  612.626
402.559;   38.506;  -19.440;  615.758
403.154;   41.556;  -16.360;  633.789
403.748;   48.560;   -8.810;  691.191
404.343;   44.724;  -10.560;  670.546
404.937;   42.215;  -13.670;  672.150
405.532;   46.503;  -26.790;  693.490
406.126;   52.082;   -5.040;  824.019
406.721;   46.001;  -20.480;  779.113
407.315;   57.725;  -16.900;  810.668
407.909;   67.076;  -14.050;  960.425
408.504;  127.964;  -14.640; 1426.859
409.098;  211.866;  -14.320; 2136.942
409.692;  232.000;   -2.900; 2312.560
410.286;  219.489;  -24.840; 2147.155
410.881;  223.007;  -15.220; 2199.210
411.475;  203.680;  -22.520; 2055.573
412.069;  193.259;  -19.980; 1964.006
412.663;  162.079;  -15.560; 1699.271
413.257;   73.871;  -20.430;  949.849
413.851;   42.062;  -25.060;  666.502
414.445;   59.507;   -5.460;  881.362
415.039;   44.282;  -22.840;  660.017
415.633;   50.447;  -16.320;  789.128
416.227;   44.257;  -17.310;  778.794
416.821;   55.395;  -12.850;  853.837
417.415;   53.184;  -13.470;  825.979
418.008;   60.468;  -15.100;  845.683
418.602;   48.565;  -19.610;  804.702
419.196;   56.750;  -18.730;  808.974
419.790;   52.702;  -20.220;  838.402
420.383;   50.670;  -19.620;  785.928
420.977;   44.792;  -20.440;  717.686
421.571;   39.809;  -22.050;  717.553
422.164;   43.405;  -15.670;  747.414
422.758;   39.715;  -19.300;  653.766
423.351;   37.311;  -18.250;  625.412
423.945;   63.254;    2.970;  821.412
424.538;   40.146;  -17.370;  629.737
425.132;   50.978;   -5.910;  741.964
425.725;   45.053;   -7.430;  661.055
426.318;   32.360;  -15.680;  582.061
426.912;   49.466;  -13.690;  674.573
427.505;   47.308;   -6.230;  670.365
428.098;   46.335;    0.320;  705.581
428.692;   35.064;  -23.330;  582.763
429.285;   43.168;  -21.560;  605.482
429.878;   44.391;  -17.160;  674.548
430.471;   47.938;  -16.080;  678.147
431.064;   56.785;  -10.380;  785.664
431.657;   78.716;  -17.930;  935.123
432.250;  353.465;  -19.050; 3230.731
432.843;  842.399;  -14.250; 7588.370
433.436; 1008.051;  -18.560; 8982.929
434.029; 1032.189;  -20.820; 9157.468
434.622; 1017.305;   -8.000; 8965.516
435.215; 1003.284;  -15.480; 8934.028
435.808;  980.877;  -20.010; 8621.923
436.401;  799.571;  -19.590; 7162.760
436.994;  379.665;  -24.770; 3408.116
437.586;   84.757;  -27.100; 1017.357
438.179;   59.110;  -13.710;  832.739
438.772;   50.271;  -21.590;  687.126
439.364;   48.715;  -22.080;  690.368
439.957;   61.174;  -11.930;  890.258
440.550;   52.268;  -18.410;  784.013
441.142;   62.440;  -15.910;  898.175
441.735;   59.830;  -11.410;  882.795
442.327;   56.534;  -15.700;  843.743
442.920;   63.902;   -3.850;  947.668
443.512;   55.758;  -22.780;  851.296
444.104;   60.206;   -8.190;  923.036
444.697;   56.933;  -19.960;  800.470
445.289;   47.484;  -22.100;  782.044
445.881;   49.217;  -23.040;  812.074
446.474;   55.243;  -10.760;  862.420
447.066;   49.011;  -29.560;  755.930
447.658;   50.046;  -12.960;  848.386
448.250;   66.710;   -8.710;  912.106
448.843;   48.689;  -20.740;  756.101
449.435;   54.417;  -15.300;  839.622
450.027;   57.142;   -8.160;  880.333
450.619;   42.385;  -17.820;  761.616
451.211;   49.133;  -23.570;  811.858
451.803;   63.429;   -5.130;  909.987
452.395;   48.422;  -22.110;  748.297
452.987;   37.114;  -27.830;  703.859
453.579;   41.263;  -18.290;  696.154
454.170;   35.519;  -24.080;  699.000
454.762;   54.116;   -5.870;  829.770
455.354;   60.084;   -6.200;  921.907
455.946;   48.519;  -24.050;  795.187
456.537;   48.856;  -26.460;  847.237
457.129;   63.590;  -16.240;  963.258
457.721;   54.048;  -18.820;  875.547
458.312;   49.397;  -20.310;  851.308
458.904;   69.041;   -9.840;  966.880
459.496;   58.330;  -14.310;  821.691
460.087;   49.248;  -26.170;  749.948
460.679;   40.473;  -20.450;  681.669
461.270;   52.001;  -13.020;  791.414
461.862;   59.744;  -20.710;  888.577
462.453;   65.384;  -14.230; 1008.522
463.044;   62.061;  -24.620;  948.210
463.636;   82.160;   -8.050; 1096.857
464.227;   76.032;   -5.760; 1068.116
464.818;   72.435;  -19.720; 1009.846
465.409;   59.924;  -19.640;  950.790
466.001;   54.425;  -24.350;  810.714
466.592;   45.262;  -22.810;  752.148
467.183;   50.510;  -21.200;  777.587
467.774;   54.746;  -14.830;  772.771
468.365;   52.172;  -22.420;  764.497
468.956;   57.971;  -13.180;  784.214
469.547;   59.034;  -13.000;  809.561
470.138;   46.092;  -21.050;  689.382
470.729;   55.889;  -10.000;  801.085
471.320;   47.966;  -11.520;  751.603
471.911;   46.588;  -23.650;  682.794
472.502;   44.368;  -22.180;  653.414
473.092;   41.202;  -23.410;  659.815
473.683;   61.389;   -1.260;  840.721
474.274;   44.671;  -19.680;  654.475
474.865;   39.435;  -23.690;  620.798
475.455;   56.098;  -12.730;  744.947
476.046;   72.588;   -5.150;  866.280
476.637;   50.149;  -19.930;  695.401
477.227;   59.446;  -19.420;  745.854
477.818;   64.408;  -18.390;  808.130
478.408;   71.709;  -23.360;  870.931
478.999;   75.787;  -22.000;  969.655
479.589;   79.203;  -19.220;  990.487
480.180;   93.211;  -12.630; 1117.075
480.770;   87.010;  -20.750; 1015.907
481.360;   88.941;  -27.420; 1041.291
481.951;  101.116;  -13.910; 1148.702
482.541;  106.201;  -26.160; 1207.311
483.131;  140.785;  -17.120; 1487.249
483.721;  269.382;  -26.650; 2637.347
484.312; 2865.699;  -20.410;25342.849
484.902; 8623.790;  -23.030;64475.386
485.492;10267.035;  -20.870;64479.279
486.082;10388.852;  -21.560;64475.396
486.672;10384.603;   -5.660;64479.271
487.262;10192.253;  -19.150;64475.402
487.852; 9762.289;  -25.650;64479.251
488.442; 8669.995;  -21.780;64475.366
489.032; 3917.851;  -17.620;33738.075
489.622;  456.773;  -25.450; 4074.653
490.212;  152.700;  -17.120; 1609.206
490.801;  113.463;  -17.070; 1327.918
491.391;  103.870;  -22.820; 1250.756
491.981;  122.422;  -14.170; 1464.098
492.571;  116.936;  -17.000; 1457.501
493.160;  104.457;  -21.880; 1371.408
493.750;  107.968;  -18.280; 1348.244
494.340;  106.609;  -17.770; 1325.017
494.929;   90.925;  -24.830; 1231.126
495.519;   86.077;  -28.580; 1114.625
496.108;   69.278;  -22.410; 1009.429
496.698;   61.452;  -23.170;  890.767
497.287;   66.059;  -22.340;  820.848
497.876;   55.981;  -12.960;  838.657
498.466;   61.781;   -8.410;  871.943
499.055;   67.007;   -9.300;  902.925
499.645;   49.722;  -23.600;  756.314
500.234;   57.479;  -22.590;  828.183
500.823;   51.350;  -18.620;  777.720
501.412;   62.195;  -20.050;  853.382
502.001;   60.288;  -22.260;  776.960
502.591;   61.540;  -19.090;  846.789
503.180;   50.509;  -24.890;  726.885
503.769;   43.190;  -30.620;  660.719
504.358;   59.291;   -8.080;  774.341
504.947;   41.580;  -22.040;  593.338
505.536;   43.919;  -21.840;  643.249
506.125;   53.670;  -11.250;  817.786
506.714;   48.700;  -23.020;  633.853
507.303;   40.854;  -23.220;  664.277
507.891;   39.724;  -16.880;  642.678
508.480;   39.411;  -25.270;  640.511
509.069;   45.572;  -16.410;  670.333
509.658;   45.722;  -13.850;  658.964
510.246;   29.905;  -23.270;  554.846
510.835;   31.017;  -22.500;  518.926
511.424;   26.389;  -23.530;  489.385
512.012;   46.659;   -0.590;  712.716
512.601;   25.448;  -17.450;  498.495
513.189;   23.277;  -30.550;  460.525
513.778;   27.126;  -26.190;  454.120
514.366;   27.722;  -13.220;  526.164
514.955;   29.825;  -17.580;  518.930
515.543;   30.070;  -18.440;  546.357
516.132;   24.518;  -22.290;  462.361
516.720;   32.942;  -16.110;  524.145
517.308;   27.082;  -23.000;  490.047
517.896;   25.673;  -27.340;  477.752
518.485;   21.141;  -23.930;  466.593
519.073;   21.517;  -22.360;  486.789
519.661;   44.734;   -5.530;  644.124
520.249;   19.363;  -26.090;  418.884
520.837;   33.249;  -20.020;  498.667
521.425;   28.554;  -19.040;  540.855
522.013;   44.433;   -5.100;  657.970
522.601;   28.511;  -17.960;  545.308
523.189;   20.332;  -20.910;  438.129
523.777;   23.179;  -26.480;  415.083
524.365;   22.776;  -21.710;  467.937
524.953;   27.284;  -20.490;  506.709
525.541;   24.439;  -23.080;  487.282
526.129;   25.030;  -23.750;  487.305
526.716;   29.118;  -17.270;  563.626
527.304;   25.494;  -17.080;  555.522
527.892;   26.449;  -19.980;  501.681
528.479;   23.924;  -28.120;  513.325
529.067;   31.509;  -19.780;  572.235
529.655;   42.146;   -6.280;  638.649
530.242;   27.339;  -20.830;  509.434
530.830;   15.055;  -31.280;  424.246
531.417;   18.733;  -16.790;  499.188
532.005;   25.121;  -16.030;  499.560
532.592;   27.058;  -24.180;  509.457
533.179;   26.187;  -18.110;  524.606
533.767;   40.880;   -3.010;  634.423
534.354;   30.583;  -15.120;  503.003
534.941;   20.404;  -23.480;  447.222
535.529;   22.168;  -21.690;  480.227
536.116;   15.408;  -23.220;  414.263
536.703;   15.679;  -26.710;  367.297
537.290;   20.526;  -27.060;  428.264
537.877;   22.556;  -27.050;  462.515
538.464;   15.352;  -24.510;  407.032
539.051;   25.076;  -26.850;  473.399
539.638;   27.049;  -19.450;  499.795
540.225;   25.894;  -19.950;  521.191
540.812;   38.237;   -4.560;  668.439
541.399;   26.709;  -23.000;  496.335
541.986;   32.894;  -25.190;  500.374
542.573;   21.756;  -23.390;  486.515
543.160;   24.432;  -23.940;  455.728
543.746;   23.371;  -17.170;  469.188
544.333;   24.345;  -18.340;  482.430
544.920;   22.070;  -19.650;  472.753
545.506;   17.515;  -24.290;  393.477
546.093;   18.312;  -21.850;  397.664
546.680;   26.353;  -17.850;  458.700
547.266;    6.358;  -27.830;  315.195
547.853;    9.497;  -18.000;  359.988
548.439;    3.209;  -28.130;  325.664
549.025;   15.310;  -19.270;  386.651
549.612;   13.432;  -24.280;  351.814
550.198;   14.837;  -21.180;  393.040
550.785;   21.764;  -16.880;  480.026
551.371;   12.884;  -17.450;  378.919
551.957;    8.540;  -27.520;  351.369
552.543;   14.278;  -27.510;  349.877
553.130;   14.723;  -26.870;  378.518
553.716;   17.096;  -19.060;  431.147
554.302;   23.063;  -15.760;  511.667
554.888;   16.063;  -25.130;  420.132
555.474;   18.827;  -19.220;  458.106
556.060;   13.714;  -21.890;  446.456
556.646;   21.897;  -18.790;  433.202
557.232;   19.746;  -19.620;  406.233
557.818;    6.820;  -25.180;  284.484
558.404;    8.327;  -26.110;  329.805
558.990;   11.828;  -31.440;  352.296
559.576;    6.583;  -30.630;  354.852
560.161;    4.699;  -36.970;  346.449
560.747;   12.872;  -26.240;  368.895
561.333;   25.617;   -9.650;  524.921
561.918;    8.563;  -28.050;  396.151
562.504;   16.228;  -19.350;  463.210
563.090;   17.006;  -24.920;  441.432
563.675;   16.267;  -25.740;  429.453
564.261;   24.115;  -26.260;  485.659
564.846;   33.506;  -21.430;  575.833
565.432;   29.974;  -18.300;  588.524
566.017;   32.835;  -23.650;  602.529
566.603;   31.379;  -23.670;  627.897
567.188;   33.254;  -31.420;  687.957
567.773;   44.912;  -24.410;  792.746
568.359;   56.721;  -20.630;  936.156
568.944;   52.318;  -26.100;  912.792
569.529;   66.967;  -22.090; 1054.821
570.114;   60.843;  -24.230; 1030.882
570.699;   58.328;  -29.380;  971.059
571.284;   63.420;  -22.450; 1067.221
571.870;   66.543;  -26.830; 1100.582
572.455;   82.810;  -25.760; 1240.700
573.040;   76.921;  -29.950; 1173.678
573.625;   65.358;  -28.210; 1086.810
574.209;   92.637;  -10.950; 1356.637
574.794;   84.309;  -23.150; 1390.100
575.379;   85.278;  -27.900; 1388.876
575.964;   86.592;  -28.560; 1366.930
576.549;   76.410;  -29.580; 1300.852
577.134;   91.652;  -17.220; 1434.210
577.718;   93.489;  -32.820; 1519.464
578.303;  105.185;  -22.050; 1645.461
578.888;  103.713;  -29.140; 1620.117
579.472;  125.065;  -24.270; 1863.197
580.057;  151.862;  -19.610; 2241.732
580.641;  150.568;  -29.130; 2299.577
581.226;  153.208;  -25.450; 2308.243
581.810;  170.396;  -12.890; 2482.099
582.395;  154.209;  -19.970; 2334.229
582.979;  155.552;  -24.030; 2294.248
583.564;  150.131;  -23.650; 2219.957
584.148;  121.875;  -18.930; 1878.377
584.732;   96.461;  -26.750; 1561.059
585.317;   99.795;  -13.330; 1532.944
585.901;  121.021;   -2.230; 1690.844
586.485;   85.417;  -22.230; 1381.370
587.069;   98.297;  -30.800; 1522.406
587.653;  108.827;  -12.090; 1818.955
588.237;   97.389;  -24.700; 1796.362
588.821;   99.168;  -29.060; 1751.158
589.405;  388.019;  273.740; 4037.266
589.989;   90.604;  -16.210; 1696.356
590.573;   86.892;  -29.250; 1636.293
591.157;  104.853;   -9.520; 1829.770
591.741;   96.568;  -29.070; 1576.992
592.325;   93.300;  -24.520; 1603.919
592.909;  119.263;  -17.830; 1716.651
593.492;  118.160;  -28.560; 1690.820
594.076;  117.144;  -31.630; 1702.042
594.660;  119.470;  -22.210; 1740.284
595.244;  114.571;  -25.230; 1721.322
595.827;  113.826;  -29.830; 1728.684
596.411;  114.354;  -28.830; 1758.006
596.994;  118.851;  -23.550; 1766.373
597.578;  118.779;  -29.110; 1678.682
598.161;  111.471;  -16.870; 1708.126
598.745;  117.059;  -15.730; 1749.912
599.328;   99.885;  -20.890; 1551.930
599.911;   86.164;  -34.320; 1383.758
600.495;   88.953;  -27.950; 1432.183
601.078;  113.380;  -20.200; 1619.387
601.661;  119.690;  -32.270; 1725.984
602.245;  116.121;  -29.680; 1759.309
602.828;  122.381;  -30.100; 1806.191
603.411;  127.990;  -25.420; 1838.019
603.994;  120.865;  -30.210; 1810.766
604.577;  124.188;  -23.770; 1777.845
605.160;  109.306;  -20.380; 1642.915
605.743;   98.698;  -27.920; 1511.276
606.326;   85.349;  -24.400; 1365.715
606.909;   89.314;  -14.780; 1439.690
607.492;   94.856;  -19.410; 1470.615
608.075;  100.420;  -16.980; 1585.438
608.658;   91.759;  -28.530; 1436.065
609.240;   94.730;  -28.450; 1353.534
609.823;   71.637;  -27.970; 1159.804
610.406;   65.537;  -30.510; 1086.339
610.989;   58.869;  -31.430; 1045.713
611.571;   67.023;  -17.090; 1108.133
612.154;   62.267;  -26.070; 1089.889
612.736;   78.043;  -15.100; 1200.533
613.319;   66.018;  -22.770; 1111.258
613.901;   69.119;  -18.320; 1181.366
614.484;   75.016;  -25.100; 1182.584
615.066;   68.001;  -27.680; 1140.344
615.649;   64.285;  -26.410; 1067.025
616.231;   58.728;  -29.460;  995.792
616.813;   50.009;  -30.780;  858.216
617.396;   64.824;  -25.740;  978.059
617.978;  105.859;  -30.550; 1321.754
618.560;   90.601;  -33.000; 1262.908
619.142;   57.148;  -33.860;  945.310
619.724;   54.368;  -33.230;  846.161
620.306;   65.973;  -16.480;  985.251
620.889;   62.036;  -25.850;  942.365
621.471;   59.315;  -32.980;  910.927
622.053;   64.076;  -27.530; 1013.049
622.635;   61.372;  -25.420;  944.281
623.216;   60.491;  -30.510;  927.423
623.798;   54.451;  -25.410;  908.177
624.380;   77.068;   -9.450; 1106.991
624.962;   49.882;  -26.930;  827.081
625.544;   45.514;  -36.120;  774.005
626.125;   45.700;  -29.130;  756.652
626.707;   99.536;   23.980; 1331.781
627.289;   49.806;  -27.650;  736.187
627.870;   45.995;  -26.900;  726.195
628.452;   45.976;  -28.240;  762.882
629.034;   69.714;  -11.970;  920.238
629.615;   46.263;  -27.170;  720.519
630.197;   45.624;  -33.300;  692.839
630.778;   51.667;  -26.640;  738.105
631.359;   51.910;  -28.050;  757.473
631.941;   60.518;  -26.830;  837.091
632.522;   58.589;  -30.250;  852.933
633.103;   57.101;  -23.370;  814.490
633.685;   58.862;  -29.160;  816.881
634.266;   51.113;  -28.040;  758.304
634.847;   54.301;  -31.920;  782.277
635.428;   50.826;  -32.740;  712.134
636.009;   47.476;  -32.980;  657.015
636.590;   51.354;  -33.350;  674.992
637.171;   60.742;  -34.200;  741.101
637.752;   60.730;  -21.930;  729.287
638.333;   58.959;  -26.480;  747.601
638.914;   65.741;  -23.450;  822.110
639.495;   67.365;  -25.520;  768.080
640.076;   55.093;  -36.920;  705.716
640.657;   61.563;  -31.660;  694.933
641.238;   80.513;  -22.690;  889.834
641.818;   77.783;  -28.350;  900.117
642.399;   89.843;  -21.800;  911.134
642.980;   87.313;  -28.030;  915.268
643.560;  100.723;  -24.220;  998.584
644.141;  108.413;  -26.450; 1125.968
644.721;  114.163;  -24.400; 1181.368
645.302;  132.963;  -21.820; 1323.518
645.882;  140.383;  -26.410; 1349.619
646.463;  161.013;  -27.020; 1489.419
647.043;  181.843;  -34.760; 1643.269
647.624;  239.883;  -14.720; 2108.886
648.204;  261.383;  -20.470; 2331.253
648.784;  294.823;  -18.650; 2585.236
649.365;  303.283;  -24.680; 2688.370
649.945;  326.603;  -31.150; 2831.320
650.525;  342.853;  -31.640; 2966.870
651.105;  365.193;  -34.880; 3180.204
651.685;  413.043;  -25.220; 3610.704
652.265;  499.883;  -24.960; 4219.521
652.845;  587.083;  -33.930; 4966.304
653.425;  792.424;  -26.760; 6646.188
654.005; 1515.194;  -28.080;12772.421
654.585;17789.334;  -36.920;64475.405
655.165;52559.234;  -26.590;64479.272
655.745;59209.644;  -28.010;64475.405
656.325;60884.154;  -29.260;64479.272
656.905;61320.614;  -30.700;64475.406
657.484;61006.504;  -13.620;64479.273
658.064;60447.264;  -38.330;64475.406
658.644;57655.364;  -23.210;64479.273
659.223;28459.214;  -33.790;64475.407
659.803; 7919.274;  -30.750;64479.273
660.382; 5778.524;  -36.360;48390.974
660.962; 5149.584;  -36.360;43458.707
661.541; 4933.784;  -34.780;41633.541
662.121; 4808.174;  -30.050;40650.124
662.700; 3448.824;  -31.650;29005.774
663.280; 1511.804;  -27.360;12694.375
663.859;  576.874;  -26.850; 4924.775
664.438;  686.154;  -22.180; 5802.692
665.017;  725.194;  -30.830; 6133.192
665.597;  288.204;  -31.880; 2516.509
666.176;  294.244;  -26.810; 2572.859
666.755;  306.724;  -12.730; 2704.376
667.334;  188.855;  -32.540; 1707.876
667.913;  239.185;    2.060; 2222.126
668.492;  147.975;  -17.360; 1407.393
669.071;  133.095;  -21.970; 1304.543
669.650;  104.205;  -34.700; 1042.544
670.229;   91.715;  -29.080;  954.910
670.808;   85.155;  -29.320;  876.111
671.387;   67.065;  -30.940;  757.361
671.965;   66.735;  -27.380;  752.328
672.544;   63.705;  -26.290;  731.061
673.123;   66.545;  -22.840;  720.428
673.702;   51.325;  -25.520;  632.862
674.280;   60.995;  -19.520;  668.462
674.859;   46.005;  -23.660;  553.495
675.437;   45.205;  -32.940;  566.512
676.016;   43.955;  -27.050;  564.779
676.594;   53.845;  -26.850;  595.163
677.173;   40.425;  -28.120;  525.630
677.751;   42.295;  -25.520;  510.430
678.330;   34.685;  -34.880;  460.013
678.908;   37.315;  -34.940;  432.414
679.486;   41.665;  -28.450;  487.964
680.065;   36.595;  -29.190;  440.281
680.643;   31.256;  -32.540;  427.014
681.221;   29.276;  -37.200;  443.498
681.799;   34.436;  -24.140;  459.981
682.377;   34.566;  -30.470;  491.965
682.955;   34.276;  -19.090;  455.532
683.533;   25.086;  -27.600;  420.482
684.111;   22.956;  -26.810;  385.432
684.689;   20.506;  -31.930;  334.266
685.267;   28.046;  -19.140;  437.932
685.845;   13.946;  -36.450;  289.349
686.423;   16.806;  -24.510;  287.316
687.001;    8.296;  -26.140;  307.416
687.579;   10.696;  -32.230;  262.150
688.156;   10.546;  -38.870;  209.300
688.734;    8.976;  -30.240;  239.400
689.312;   16.646;  -18.980;  348.184
689.889;   14.716;  -21.970;  308.601
690.467;   19.526;  -17.160;  398.568
691.044;    1.896;  -32.540;  250.934
691.622;   14.216;  -29.370;  321.701
692.199;    4.046;  -37.220;  173.452
692.777;   11.996;  -24.220;  301.285
693.354;    4.296;  -25.550;  226.885
693.932;   -3.203;  -37.900;  149.519
694.509;   -9.443;  -34.220;  110.819
695.086;   -6.703;  -37.360;  152.969
695.663;   -8.263;  -37.460;   92.986
696.241;  -12.123;  -41.210;   72.220
696.818;   -8.353;  -33.290;  108.987
697.395;  -15.323;  -37.150;  102.520
697.972;   -9.643;  -29.430;  121.737
698.549;  -12.043;  -33.850;   87.404
699.126;  -11.603;  -35.350;   65.204
699.703;  -15.223;  -35.030;   59.104
700.280;  -17.053;  -35.590;  108.054
700.857;   -7.993;  -36.310;  108.171
701.434;  -13.023;  -32.930;   82.338
702.010;  -11.503;  -27.400;  131.322
702.587;  -15.613;  -24.190;  132.722
703.164;  -14.263;  -34.250;   98.622
703.741;  -11.913;  -29.750;  122.472
704.317;   -1.913;  -20.030;  195.323
704.894;  -15.103;  -31.790;   83.673
705.471;  -16.293;  -29.770;   99.173
706.047;   -9.483;  -25.830;  129.106
706.624;  -22.423;  -38.630;   28.090
707.200;  -23.243;  -28.590;   51.890
707.776;  -21.912;  -38.580;   10.774
708.353;  -20.042;  -32.590;   28.557
708.929;  -14.052;  -24.640;  105.424
709.506;  -14.892;  -33.420;   25.708
710.082;  -18.912;  -39.220;   12.491
710.658;   -6.822;  -22.890;  129.475
711.234;  -17.082;  -32.330;   72.575
711.810;  -24.022;  -35.170;   10.475
712.387;   -6.172;  -24.490;  148.125
712.963;  -23.012;  -32.490;   13.476
713.539;  -18.842;  -32.410;   57.159
714.115;  -25.422;  -37.410;  -13.874
714.691;  -23.482;  -41.160;  -21.440
715.267;  -18.242;  -34.030;   22.710
715.842;   -8.692;  -29.270;   86.577
716.418;  -13.292;  -32.240;   72.777
716.994;  -15.112;  -34.070;   77.894
717.570;   21.158;    5.990;  502.411
718.146;  -15.672;  -37.510;   68.661
718.721;   -3.252;  -22.750;  183.778
719.297;  -22.452;  -36.710;   59.611
719.873;  -21.172;  -33.010;   50.511
720.448;  -29.262;  -42.980;   25.062
721.024;  -15.001;  -31.910;   93.128
721.599;  -21.961;  -39.680;   34.395
722.175;  -22.861;  -33.930;   52.396
722.750;  -22.561;  -32.420;   66.929
723.325;  -23.331;  -39.520;   62.479
723.901;   -6.261;  -28.400;  190.563
724.476;   -7.551;  -30.320;  195.013
725.051;   -9.041;  -32.070;  201.813
725.627;    1.929;  -27.510;  291.197
726.202;   -4.411;  -30.550;  276.447
726.777;   -9.011;  -37.450;  198.097
727.352;    5.939;  -20.080;  351.614
727.927;  -10.961;  -37.550;  164.648
728.502;   10.339;  -15.430;  379.614
729.077;   -4.811;  -35.750;  224.548
729.652;    8.619;  -16.530;  384.415
730.227;   -7.331;  -35.070;  186.798
730.802;  -19.831;  -37.060;  133.482
731.377;   -2.081;  -24.590;  271.282
731.951;    2.319;  -22.110;  300.666
732.526;  -14.961;  -31.790;  124.083
733.101;  -19.301;  -39.200;   69.649
733.676;  -18.011;  -32.670;  108.883
734.250;  -12.200;  -32.440;  153.683
734.825;  -16.780;  -33.840;  140.433
735.399;  -17.470;  -35.260;  123.534
735.974;   -7.910;  -28.110;  195.617
736.548;   -4.830;  -29.720;  208.501
737.123;  -19.910;  -36.090;  108.484
737.697;  -18.060;  -42.980;   61.734
738.272;  -22.010;  -35.980;   74.001
738.846;  -21.150;  -36.300;   50.135
739.420;  -26.930;  -36.390;   39.585
739.994;  -18.600;  -30.880;   79.819
740.569;  -22.850;  -32.330;   38.669
741.143;  -21.880;  -36.930;   61.819
741.717;  -25.630;  -37.980;   20.903
742.291;  -32.690;  -42.290;    4.803
742.865;  -26.450;  -34.130;   40.253
743.439;  -21.570;  -34.820;   68.570
744.013;  -21.400;  -29.150;   79.837
744.587;  -14.860;  -29.290;  159.670
745.161;   -6.650;  -25.140;  195.970
745.735;  -18.030;  -34.860;  139.971
746.308;  -12.670;  -33.030;  170.554
746.882;  -13.590;  -43.160;   98.138
747.456;  -12.020;  -29.850;  183.955
748.030;  -14.269;  -36.340;   95.121
748.603;  -17.649;  -30.440;  132.838
749.177;  -19.799;  -40.030;   78.239
749.751;  -10.099;  -26.520;  217.855
750.324;  -19.999;  -41.040;   38.356
750.898;  -14.319;  -34.550;   87.606
751.471;   -3.889;  -21.720;  241.189
752.044;  -12.889;  -32.180;  150.756
752.618;  -15.739;  -41.570;   90.223
753.191;  -12.139;  -35.880;  146.807
753.764;  -17.339;  -41.970;  100.540
754.338;    0.811;  -20.790;  255.524
754.911;  -12.849;  -34.010;  151.674
755.484;   -8.789;  -25.950;  186.174
756.057;   -9.649;  -23.510;  214.308
756.630;   -2.269;  -21.270;  246.308
757.203;  -26.979;  -36.990;   39.758
757.776;  -24.959;  -36.310;   44.508
758.349;  -11.999;  -35.740;  131.642
758.922;  -11.929;  -32.170;  198.159
759.495;  -13.769;  -34.870;  116.442
760.068;  -17.029;  -34.560;  136.326
760.641;  -21.849;  -44.020;  102.443
761.214;  -15.678;  -37.330;  133.609
761.786;  -22.208;  -40.170;   69.726
762.359;  -14.108;  -33.430;  100.643
762.932;  -24.658;  -36.450;   18.593
763.504;  -26.258;  -40.730;   25.477
764.077;  -21.558;  -36.450;   46.977
764.649;  -20.228;  -27.050;   65.244
765.222;  -23.408;  -33.970;   49.661
765.794;  -20.668;  -31.010;   58.894
766.367;  -24.538;  -37.940;   81.928
766.939;  -22.788;  -32.350;   88.178
767.511;  -24.818;  -34.440;   86.712
768.084;   -9.968;  -31.270;  157.412
768.656;  -14.988;  -31.810;  156.595
769.228;  -14.698;  -28.670;  134.446
769.800;  -21.918;  -38.370;   33.963
770.373;  -15.608;  -29.530;   71.879
770.945;  -26.138;  -33.780;   68.213
771.517;  -25.868;  -34.450;   31.446
772.089;  -22.978;  -36.270;   59.947
772.661;  -17.868;  -32.490;   99.030
773.233;  -14.528;  -33.040;  107.730
773.805;  -23.828;  -31.630;   66.214
774.376;  -24.527;  -35.700;   40.881
774.948;   -8.317;  -22.940;  153.848
775.520;   13.513;  -32.830;  363.265
776.092;   68.213;  -38.130;  851.531
776.663;   85.923;  -34.930;  956.715
777.235;   89.953;  -25.030; 1038.699
777.807;   94.083;  -24.770; 1108.199
778.378;   92.913;  -28.970; 1025.799
778.950;   89.343;  -29.660; 1008.666
779.521;   68.343;  -28.530;  888.066
780.093;   40.763;  -22.200;  667.566
780.664;   -2.827;  -29.700;  146.000
781.235;  -14.167;  -21.710;  143.000
781.807;  -24.457;  -35.540;    7.417
782.378;  -24.057;  -35.390;   13.667
782.949;  -27.617;  -34.690;  -23.599
783.521;  -27.827;  -40.800;  -36.516
784.092;  -27.807;  -27.910;   -7.499
784.663;  -21.817;  -24.550;   43.618
785.234;  -32.207;  -37.720;  -75.365
785.805;  -35.167;  -40.540;  -24.698
786.376;  -26.687;  -31.230;   22.252
786.947;  -27.607;  -31.740;    1.302
787.518;  -33.547;  -37.110;  -65.831
788.089;  -28.686;  -39.130;  -59.431
788.660;  -30.536;  -38.200;  -74.164
789.230;  -22.786;  -30.780;   53.820
789.801;  -27.436;  -37.230;  -18.614
790.372;  -28.976;  -44.690;  -63.147
790.943;  -10.746;  -18.050;  139.637
791.513;  -28.796;  -41.060;  -32.313
792.084;  -29.936;  -39.690;  -69.879
792.654;  -18.796;  -27.880;   36.121
793.225;  -19.006;  -31.870;   55.254
793.795;  -26.856;  -36.750;  -19.279
794.366;  -25.276;  -29.330;   15.538
794.936;  -14.316;  -23.660;  120.155
795.507;  -17.566;  -27.670;   47.055
796.077;  -15.976;  -24.370;   78.522
796.647;  -26.286;  -36.570;  -25.078
797.217;  -24.466;  -34.830;  -13.561
797.788;  -10.476;   -8.610;  173.806
798.358;  -31.766;  -37.240;   -5.711
798.928;  -31.886;  -41.010;  -38.477
799.498;  -28.786;  -41.370;  -31.277
800.068;  -33.656;  -40.620;  -21.743
800.638;  -32.486;  -42.930;  -59.160
801.208;  -24.265;  -28.930;   35.590
801.778;  -28.125;  -33.600;   -0.693
802.348;  -32.465;  -35.150;  -56.259
802.917;  -27.765;  -34.140;  -11.592
803.487;  -33.575;  -35.540;  -57.525
804.057;  -31.265;  -40.780;  -39.575
804.627;  -31.275;  -40.230;  -55.375
805.196;  -22.115;  -34.020;   14.442
805.766;  -31.705;  -39.300;  -53.141
806.335;  -30.525;  -38.030;  -55.108
806.905;  -21.755;  -28.520;  -10.324
807.475;  -32.935;  -41.060;  -82.141
808.044;  -25.345;  -34.870;   19.893
808.613;  -34.905;  -38.950;  -63.724
809.183;  -34.565;  -34.300;  -42.473
809.752;  -35.465;  -41.190;  -49.823
810.321;  -32.075;  -34.630;  -13.990
810.891;  -18.425;  -28.520;   20.227
811.460;  -28.455;  -34.730;  -18.089
812.029;  -32.815;  -33.890;  -20.189
812.598;  -32.845;  -38.010;  -62.872
813.167;  -34.645;  -40.130;  -19.889
813.736;  -15.435;  -27.850;   97.895
814.305;  -27.754;  -32.710;   -9.788
814.874;  -26.294;  -30.070;   28.962
815.443;  -33.184;  -40.940;  -60.654
816.012;  -16.244;  -20.730;   60.529
816.581;  -40.244;  -36.940;  -93.254
817.150;  -20.304;  -28.780;   53.046
817.718;  -33.264;  -38.150;  -41.170
818.287;  -22.194;  -26.930;   20.697
818.856;  -24.814;  -33.410;   11.130
819.424;  -27.654;  -30.570;   -5.336
819.993;  -31.514;  -37.230;  -53.436
820.562;  -36.074;  -39.250;  -82.303
821.130;  -26.094;  -27.540;   34.764
821.698;  -30.824;  -39.290;  -76.302
822.267;  -27.804;  -40.430;  -24.919
822.835;  -30.304;  -34.570;  -21.002
823.404;  -35.024;  -42.370;  -98.002
823.972;  -19.164;  -25.110;   85.465
824.540;  -30.724;  -34.130;  -46.901
825.108;  -33.174;  -42.120;  -72.134
825.677;   -9.674;  -16.910;  178.766
826.245;  -28.434;  -30.670;  -20.084
826.813;  -35.874;  -47.430;  -67.384
827.381;  -37.684;  -37.610;  -80.083
827.949;  -33.153;  -42.560;  -66.650
828.517;  -26.423;  -35.630;  -31.750
829.085;  -32.213;  -34.300;  -51.783
829.653;  -32.213;  -38.470;  -60.733
830.220;  -19.903;  -33.230;   15.668
830.788;  -38.963;  -43.900;  -97.316
831.356;  -26.733;  -35.080;  -46.282
831.924;  -16.603;  -21.750;  128.002
832.491;  -28.103;  -37.250;  -45.798
833.059;  -27.273;  -36.250;  -10.565
833.627;  -32.883;  -34.000;  -14.665
834.194;  -28.003;  -38.470;  -50.998
834.762;  -30.453;  -44.570;  -34.781
835.329;  -29.303;  -33.380;  -53.397
835.897;  -32.283;  -41.910;  -62.497
836.464;  -32.393;  -32.990;  -18.847
837.031;  -30.503;  -42.230;  -34.997
837.599;  -34.063;  -43.660;  -75.896
838.166;  -26.933;  -32.110;   19.737
838.733;  -28.683;  -34.570;   25.554
839.300;  -33.023;  -39.840;  -36.046
839.867;  -27.103;  -32.050;   21.454
840.434;  -31.723;  -42.340;  -73.029
841.001;  -28.302;  -32.450;    1.771
841.568;  -25.172;  -34.100;  -20.162
842.135;  -32.492;  -45.080;  -70.311
842.702;  -13.442;  -32.750;  134.822
843.269;    1.258;  -36.770;  380.806
843.836;    9.158;  -34.860;  450.922
844.403;   13.328;  -35.530;  479.606
844.970;   11.738;  -41.660;  467.023
845.536;   18.648;  -37.440;  489.623
846.103;   11.458;  -37.580;  467.907
846.670;   16.288;  -39.590;  426.840
847.236;  -10.502;  -46.210;  230.524
847.803;  -22.852;  -39.570;   46.474
848.369;  -32.362;  -37.450;  -16.459
848.936;  -20.772;  -30.250;   65.308
849.502;  -18.782;  -19.280;  119.941
850.069;  -29.072;  -37.360;  -25.325
850.635;  -25.782;  -30.270;   20.592
851.201;  -36.592;  -42.730;  -72.208
851.767;  -36.262;  -43.890;  -62.141
852.334;  -19.542;  -27.270;  105.559
852.900;  -25.842;  -38.120;  -14.708
853.466;   -9.192;  -24.900;  123.793
854.032;  -32.011;  -37.440;  -14.974
854.598;  -23.501;  -29.910;  101.893
855.164;  -18.901;  -22.030;   75.027
855.730;  -30.281;  -34.420;   13.543
856.296;  -15.931;  -29.410;  101.877
856.862;  -30.801;  -36.650;  -22.406
857.428;  -19.981;  -22.120;   96.061
857.993;  -33.101;  -40.950;  -71.522
858.559;  -38.011;  -40.860; -103.689
859.125;  -29.461;  -40.660;  -52.705
859.690;  -30.791;  -39.240;  -67.688
860.256;  -37.041;  -42.380; -106.055
860.822;  -29.651;  -36.830;  -48.021
861.387;  -24.961;  -37.170;  -12.838
861.953;  -35.751;  -37.880;  -61.354
862.518;  -22.341;  -24.400;   28.246
863.083;  -34.471;  -39.470;  -73.437
863.649;  -29.081;  -28.280;    5.663
864.214;  -32.451;  -35.580;  -68.937
864.779;  -22.531;  -26.670;   49.313
865.345;   -8.531;  -14.980;  224.480
865.910;  -30.481;  -35.960;  -13.020
866.475;  -39.731;  -47.280;  -65.319
867.040;  -28.851;  -32.340;   17.781
867.605;  -34.230;  -44.520;  -86.186
868.170;  -33.320;  -42.950;  -45.469
868.735;  -32.810;  -36.790;  -53.635
869.300;  -30.350;  -39.170;  -58.685
869.865;  -35.580;  -38.110;  -72.835
870.430;  -42.320;  -45.850; -115.151
870.995;  -41.950;  -44.640; -113.201
871.559;  -27.830;  -33.450;   17.916
872.124;  -33.350;  -36.940;  -33.184
872.689;  -40.620;  -43.530;  -83.884
873.253;  -30.010;  -35.340;  -29.067
873.818;  -40.080;  -39.820;  -77.633
874.382;  -26.590;  -31.910;   38.817
874.947;  -31.880;  -34.640;   -4.383
875.511;  -31.350;  -39.190;   -1.483
876.076;  -35.820;  -41.570;  -80.100
876.640;  -39.550;  -44.850; -107.600
877.205;  -32.970;  -39.710;  -74.667
877.769;  -31.710;  -44.470;  -19.333
878.333;  -37.020;  -45.490;  -61.400
878.897;  -28.780;  -38.180;   -6.050
879.461;  -29.550;  -34.610;   18.050
880.026;  -18.890;  -25.530;  102.750
880.590;  -35.380;  -41.540;  -20.800
881.154;  -20.300;  -31.620;   62.533
881.718;  -32.290;  -37.680;  -38.383
882.282;  -28.480;  -33.770;   -6.650
882.846;  -38.680;  -37.990;  -58.367
883.409;  -31.980;  -30.980;  -49.067
883.973;   11.800;    7.290;  391.800
884.537;  -37.310;  -39.000;  -32.717
885.101;  -41.700;  -42.300; -121.467
885.664;  -27.480;  -28.260;   58.900
886.228;  -35.480;  -36.710;  -53.833
886.792;  -33.830;  -35.110;   11.550
887.355;  -24.860;  -31.810;   12.500
887.919;  -36.130;  -44.780;  -62.433
888.482;  -30.880;  -44.430;  -49.167
889.046;  -33.490;  -41.960;  -42.367
889.609;  -25.410;  -33.170;   37.367
890.172;  -38.050;  -44.570;  -28.950
890.736;  -31.000;  -37.730;   20.750
891.299;  -34.070;  -43.180;  -28.700
891.862;  -34.190;  -44.550;  -69.900
892.425;  -35.570;  -42.150;  -87.833
892.988;  -27.790;  -34.890;  -23.700
893.552;  -38.690;  -44.700; -109.433
894.115;  -36.850;  -36.800;  -61.583
894.678;  -28.880;  -34.520;  -18.367
895.241;  -23.430;  -25.360;   75.417
895.803;  -35.170;  -42.490;  -74.633
896.366;  -28.950;  -38.050;  -52.867
896.929;  -29.850;  -42.140;  -29.033
897.492;  -32.930;  -39.410;  -57.717
898.055;  -25.360;  -32.520;    9.150
898.617;  -18.740;  -28.320;   64.067
899.180;  -41.270;  -45.860;  -83.067
899.743;  -14.450;  -18.520;  143.183
900.305;  -37.050;  -41.560;  -80.017
900.868;  -32.980;  -41.630;  -82.900
901.430;  -40.950;  -48.900;  -98.950
901.993;  -35.210;  -45.820;  -66.950
902.555;  -34.130;  -36.690;   -6.767
903.117;  -17.200;  -16.160;  174.200
903.680;  -30.160;  -38.680;  -26.717
904.242;  -31.750;  -34.470;  -41.000
904.804;  -31.850;  -40.750;  -47.000
905.366;  -41.570;  -38.200;  -93.283
905.929;  -31.900;  -33.520;   17.617
906.491;  -36.350;  -36.040;  -12.067
907.053;  -34.910;  -43.880;  -95.117
907.615;  -39.830;  -38.570;  -78.567
908.177;  -23.140;  -32.520;   86.767
908.739;  -32.240;  -38.740;  -33.350
909.300;  -41.880;  -41.290;  -80.333
909.862;  -32.290;  -39.010;  -56.967
910.424;  -38.750;  -40.120;  -64.967
910.986;  -30.880;  -27.250;   50.950
911.547;  -34.940;  -43.920;  -56.033
912.109;  -33.500;  -39.510;  -35.083
912.671;  -30.150;  -34.870;  -17.033
913.232;  -44.900;  -46.520; -108.250
913.794;  -37.220;  -41.250;  -76.383
914.355;  -32.810;  -35.030;   10.083
914.917;  -25.730;  -34.270;    1.383
915.478;  -31.260;  -37.730;  -23.967
916.039;  -20.490;  -25.390;  112.817
916.601;  -33.990;  -38.250;  -37.450
917.162;  -38.450;  -44.360;  -56.983
917.723;  -39.600;  -44.150;  -68.317
918.284;  -40.670;  -45.040;  -88.600
918.845;  -29.190;  -26.500;   28.717
919.407;  -30.100;  -37.890;  -10.717
919.968;  -36.440;  -41.900; -103.100
920.529;  -33.970;  -44.530;  -76.117
921.090;  -31.040;  -29.190;   48.117
921.650;  -40.670;  -45.210; -114.017
922.211;  -42.820;  -38.080;  -96.650
922.772;  -36.350;  -44.290; -100.067
923.333;  -40.370;  -40.830;  -88.000
923.894;  -34.290;  -41.540;  -38.917
924.454;  -33.100;  -50.280; -100.267
925.015;  -31.610;  -42.190;  -21.100
925.576;  -35.670;  -40.410;  -19.200
926.136;  -33.800;  -50.450;  -35.517
926.697;  -31.150;  -47.950;  -30.067
927.257;  -18.290;  -29.680;  120.883
927.818;  -31.190;  -35.870;  -17.900
928.378;  -28.700;  -43.730;  -39.083
928.938;  -33.850;  -46.510;  -60.217
929.499;  -38.010;  -43.660;  -39.700
930.059;  -44.380;  -43.910; -125.750
930.619;  -38.120;  -50.220; -115.167
931.179;  -26.610;  -33.530;    4.150
931.739;  -38.480;  -52.110; -106.183
932.299;  -30.040;  -36.670;  -16.583
932.859;  -35.480;  -44.680;  -78.017
933.419;  -34.090;  -38.750;  -48.250
933.979;  -29.130;  -34.340;    3.767
934.539;  -33.340;  -40.200;  -59.250
935.099;  -33.150;  -37.010;  -48.500
935.659;  -45.390;  -45.870; -121.267
936.219;  -36.570;  -43.650;  -60.150
936.778;  -44.820;  -45.440; -114.817
937.338;  -36.360;  -40.030;  -37.217
937.898;  -35.770;  -38.160;  -24.000
938.457;  -44.160;  -51.480; -137.233
939.017;  -39.690;  -37.670;  -65.783
939.576;  -41.180;  -43.320; -104.000
940.136;  -40.520;  -48.790;  -75.400
940.695;  -27.350;  -32.890;   52.267
941.254;  -42.670;  -44.640;  -93.217
941.814;  -34.420;  -41.560;  -65.550
942.373;  -28.630;  -37.990;    5.650
942.932;  -38.090;  -46.740; -109.167
943.491;  -36.370;  -46.360;  -94.000
944.051;  -45.160;  -50.550; -134.117
944.610;  -36.290;  -37.700;  -17.267
945.169;  -39.150;  -46.300;  -76.350
945.728;  -41.880;  -43.790;  -83.683
946.287;  -39.230;  -40.480;  -82.400
946.846;  -43.970;  -42.650; -127.117
947.404;  -43.460;  -46.450; -126.267
947.963;  -40.910;  -42.820;   10.883
948.522;  -41.450;  -42.720;  -89.250
949.081;  -38.780;  -45.140;  -77.600
949.639;  -16.750;  -26.350;  109.800
950.198;  -38.410;  -43.820;  -52.933
950.757;  -29.800;  -31.150;   -7.233
951.315;  -48.380;  -43.230;  -76.883
951.874;  -41.650;  -40.830;  -88.550
952.432;  -25.090;  -35.940;   19.483
952.991;  -33.320;  -32.710;   -2.067
953.549;  -40.740;  -39.430;  -76.733
954.107;  -41.500;  -47.520; -117.567
954.666;  -43.070;  -43.670; -106.367
955.224;  -34.620;  -47.570;  -88.400
955.782;  -20.840;  -33.770;   67.300
956.340;  -35.170;  -46.250;  -41.917
956.898;  -35.170;  -42.690;  -54.583
957.456;  -39.760;  -45.330;  -96.033
958.014;  -21.670;  -33.490;    9.450
958.572;  -35.280;  -39.510;  -50.517
959.130;  -28.230;  -27.660;    8.817
959.688;  -38.040;  -48.850; -103.467
960.246;  -32.410;  -36.250;  -18.200
960.804;  -36.520;  -39.060;  -22.617
961.362;  -41.030;  -42.040;  -81.017
961.919;  -46.000;  -48.320; -123.633
962.477;  -38.090;  -46.290; -109.267
963.035;  -36.820;  -45.740;  -47.883
963.592;  -33.620;  -41.010;  -34.367
964.150;  -35.380;  -35.120;  -23.833
964.707;  -27.380;  -39.300;  -13.533
965.265;  -39.460;  -50.870;  -84.333
965.822;  -40.160;  -39.490;  -50.533
966.379;  -41.570;  -51.390; -139.033
966.937;  -43.220;  -49.710;  -97.317
967.494;  -39.260;  -53.890; -128.550
968.051;  -44.710;  -48.380; -125.317
968.608;  -22.680;  -26.610;   88.067
969.165;  -41.120;  -53.690; -107.367
969.722;  -48.080;  -56.790; -145.183
970.279;  -28.230;  -31.550;   37.317
970.836;  -48.770;  -47.630; -109.983
971.393;  -37.000;  -39.260;  -27.500
971.950;  -43.490;  -46.970; -125.100
972.507;  -48.300;  -46.450; -105.900
973.064;  -25.450;  -37.870;   21.383
973.621;  -33.720;  -36.500;  -35.200
974.177;  -40.650;  -45.580;  -50.617
974.734;  -46.580;  -51.240; -124.267
975.291;  -24.350;  -31.290;   76.450
975.847;  -36.390;  -37.760;  -13.483
976.404;  -31.930;  -38.680;  -28.417
976.960;  -47.150;  -43.530; -109.900
977.517;  -32.100;  -39.550;    4.317
978.073;  -37.570;  -36.400;  -36.883
978.629;  -41.110;  -45.140;  -46.617
979.186;  -36.190;  -42.370;  -28.800
979.742;  -32.020;  -33.070;   30.300
980.298;  -49.050;  -43.500;  -93.767
980.854;  -37.800;  -40.130;   -6.067
981.411;  -42.990;  -43.270; -103.133
981.967;  -44.130;  -52.180; -111.717
982.523;  -42.940;  -48.630;  -90.933
983.079;  -41.330;  -46.190;  -49.700
983.635;  -44.510;  -35.420;  -67.467
984.190;  -32.300;  -38.430;  -46.467
984.746;  -41.040;  -43.670; -106.300
985.302;  -43.830;  -43.440;  -70.267
985.858;  -47.560;  -38.760;  -62.350
986.414;  -42.510;  -46.880;  -80.567
986.969;  -44.160;  -49.180;  -91.667
987.525;  -46.970;  -53.060; -136.200
988.080;  -43.750;  -47.690; -120.850
988.636;  -48.110;  -48.410; -122.167
989.192;  -42.750;  -51.010; -129.133
989.747;  -25.870;  -36.500;   34.350
990.302;  -40.970;  -48.550;  -99.083
990.858;  -40.580;  -41.440;  -87.633
991.413;  -39.340;  -38.450;  -49.800
991.968;  -33.650;  -40.480;  -39.867
992.523;  -37.050;  -42.150;  -81.033
993.079;  -37.230;  -45.690;  -61.050
993.634;  -44.380;  -37.970;  -71.383
994.189;  -30.540;  -36.830;  -41.767
994.744;  -40.130;  -49.350;  -96.417
995.299;  -41.820;  -50.690; -130.850
995.854;  -43.890;  -45.690; -107.467
996.409;  -38.860;  -40.410;  -44.350
996.963;  -35.100;  -40.550;  -41.083
997.518;  -18.500;  -29.570;   95.450
998.073;  -34.950;  -39.520;  -25.033
998.628;  -44.550;  -49.040; -127.217
999.182;  -31.260;  -37.850;   12.083
999.737;  -34.490;  -39.890;  -33.567
1000.292;  -42.550;  -44.960;  -61.233
1000.846;  -32.750;  -40.240;  -48.683
1001.401;  -37.110;  -38.740;  -42.583
1001.955;  -48.620;  -50.200; -140.117
1002.509;  -37.370;  -49.470;  -59.067
1003.064;  -36.610;  -51.800; -103.017
1003.618;  -24.240;  -27.300;   80.833
1004.172;  -47.400;  -50.600; -104.933
1004.726;  -50.300;  -50.800; -136.250
1005.281;  -16.730;  -19.690;  170.067
1005.835;  -44.480;  -49.940; -130.233
1006.389;  -46.410;  -52.290; -117.783
1006.943;  -47.010;  -48.050; -109.850
1007.497;  -30.660;  -44.230;    0.250
1008.051;  -49.600;  -47.510; -123.283
1008.605;  -43.670;  -47.650;  -90.850
1009.158;  -39.230;  -52.830;  -75.417
1009.712;  -38.270;  -45.790;  -34.700
1010.266;  -46.380;  -50.000; -115.433
1010.820;  -46.490;  -52.640; -115.883
1011.373;  -29.270;  -32.490;   26.550
1011.927;  -35.640;  -41.000;  -13.717
1012.480;  -34.370;  -38.670;  -29.567
1013.034;  -46.470;  -44.020;  -78.950
1013.587;  -39.770;  -39.700;  -39.300
1014.141;  -39.470;  -46.590;  -97.500
1014.694;  -47.550;  -51.300; -122.767
1015.248;  -21.380;  -23.390;  136.383
1015.801;  -37.910;  -38.830;  -18.300
1016.354;  -52.650;  -50.540; -132.683
1016.907;  -46.440;  -42.210; -102.917
1017.460;  -47.650;  -50.240; -111.550
1018.013;  -44.450;  -46.130;  -90.250
1018.567;  -43.970;  -51.980; -110.783
1019.120;  -42.510;  -43.430;  -91.667
1019.672;  -39.020;  -40.900;  -15.300
1020.225;  -23.980;  -37.050;   27.083
1020.778;  -51.160;  -53.170; -137.583
1021.331;  -37.680;  -43.670;  -72.050
1021.884;  -28.430;  -43.530;   51.167
1022.437;  -28.040;  -33.160;   44.167
1022.989;  -37.720;  -47.320;  -80.617
1023.542;  -40.850;  -46.890; -117.333
1024.094;  -25.180;  -30.890;   85.667
1024.647;  -43.190;  -41.640;  -85.767
1025.199;  -48.040;  -53.980; -131.417
1025.752;   -7.160;   -3.690;  341.467
1026.304;  -34.140;  -43.890;  -44.350
1026.857;  -42.890;  -44.890;  -87.700
1027.409;  -31.630;  -41.440;  -27.767
1027.961;  -44.730;  -47.410;  -87.117
1028.513;  -35.020;  -41.490;  -58.233
1029.066;  -38.150;  -47.690; -116.283
1029.618;  -41.340;  -53.680;  -94.167
1030.170;  -36.350;  -41.340;  -42.617
1030.722;  -39.510;  -46.620;  -47.050
1031.274;  -45.430;  -50.080;  -95.767
1031.826;  -35.990;  -45.340;  -58.033
1032.378;  -29.740;  -34.200;   56.917
1032.929;  -38.670;  -43.030;  -44.133
1033.481;  -37.470;  -38.880;  -20.767
1034.033;  -38.250;  -41.330;  -39.467
1034.585;  -37.930;  -43.480;  -41.833
1035.136;  -41.840;  -48.660;  -90.417
1035.688;  -48.070;  -50.110; -127.083
1036.239;  -49.240;  -53.740; -117.550
1036.791;  -37.120;  -50.550;  -78.767
1037.342;  -44.970;  -54.000; -129.400
1037.894;  -43.190;  -46.550;  -85.883
1038.445;  -50.230;  -51.340; -136.633
1038.996;  -44.400;  -41.420;  -93.967
1039.548;  -43.890;  -52.760; -106.750
1040.099;  -29.000;  -40.330;   27.450
1040.650;  -48.550;  -49.410; -119.383
1041.201;  -44.930;  -45.500;  -77.000
1041.752;  -47.690;  -45.140;  -69.533
1042.303;  -51.960;  -48.860; -100.800
1042.854;  -42.500;  -46.880;  -99.217
1043.405;  -34.820;  -42.150;  -34.550
1043.956;  -49.160;  -52.870; -129.967
1044.507;  -44.840;  -48.370;  -88.250
1045.058;  -33.000;  -35.120;   26.017
1045.609;  -48.390;  -45.450;  -96.817
1046.159;  -43.710;  -34.420;   -3.000
1046.710;  -41.110;  -50.320; -102.517
1047.261;  -45.970;  -49.170;  -87.800
1047.811;  -46.290;  -47.390; -121.567
1048.362;  -53.750;  -48.870; -128.667
1048.912;   86.190;   88.520; 1215.600
1049.463;  -20.960;  -26.020;  114.100
1050.013;  -44.520;  -50.400;  -88.183
1050.563;  -46.590;  -53.760; -111.783
1051.114;  -32.060;  -43.950;  -35.983
1051.664;  -52.460;  -46.020; -128.617
1052.214;  -42.440;  -42.660;  -84.333
1052.764;  -43.610;  -46.620;  -50.300
1053.314;  -41.470;  -43.130;  -82.067
1053.864;  -43.290;  -48.480;  -70.333
1054.414;  -44.660;  -45.360;  -74.833
1054.964;  -38.010;  -45.730;  -87.333
1055.514;  -16.980;  -12.640;  222.300
1056.064;  -47.680;  -51.100; -141.017
1056.614;  -25.610;  -32.280;   60.717
1057.163;  -43.320;  -47.400;  -85.417
1057.713;  -41.620;  -43.330;  -81.400
1058.263;  -46.170;  -46.920; -119.967
1058.812;  -32.700;  -42.330;  -30.783
1059.362;  -48.420;  -55.670; -144.233
1059.912;  -37.450;  -41.720;  -33.683
1060.461;  -39.420;  -45.300;  -48.100
1061.010;  -42.130;  -42.120;  -93.150
1061.560;  -46.010;  -52.640; -131.383
1062.109;  -36.580;  -41.360;  -28.833
1062.658;  -47.620;  -52.870; -103.833
1063.208;  -40.850;  -53.040; -130.100
1063.757;  -44.640;  -52.250; -106.417
1064.306;  -44.520;  -42.190;  -68.700
1064.855;  -46.350;  -50.980; -133.100
1065.404;  -33.080;  -33.560;   46.000
1065.953;  -33.090;  -33.730;   21.117
1066.502;  -48.160;  -53.370; -114.117
1067.051;  -48.400;  -49.450;  -93.117
1067.600;  -37.740;  -38.330;  -17.350
1068.149;  -41.000;  -49.790;  -71.200
1068.698;  -52.730;  -48.980; -101.767
1069.246;  -36.780;  -51.870;  -59.100
1069.795;  -44.290;  -46.660;  -91.800
1070.344;  -44.220;  -53.030; -116.800
1070.892;  -33.490;  -35.720;    8.350
1071.441;  -44.780;  -47.930;  -59.983
1071.989;  -22.110;  -27.710;  131.600
1072.538;  -44.180;  -54.540; -131.067
1073.086;  -46.920;  -52.420; -102.767
1073.634;  -42.320;  -42.610;  -50.917
1074.183;  -36.350;  -44.610;  -45.217
1074.731;  -47.410;  -57.540; -138.100
1075.279;  -30.930;  -34.090;   31.533
1075.827;  -39.840;  -47.420;  -72.333
1076.375;  -52.770;  -54.530; -129.117
1076.923;  -44.340;  -45.190;  -91.950
1077.471;  -47.010;  -41.140;  -35.367
1078.019;  -25.150;  -35.170;   46.400
1078.567;  -47.920;  -54.740; -130.300
1079.115;  -49.600;  -55.200; -115.433
1079.663;  -47.920;  -48.710; -129.217
1080.210;  -48.000;  -42.630;  -74.933
1080.758;  -43.120;  -46.120;  -56.833
1081.306;  -51.420;  -58.890; -134.833
1081.853;  -49.500;  -51.760; -129.817
1082.401;  -42.210;  -42.840;  -21.450
1082.949;  -43.000;  -47.500;  -76.633
1083.496;  -42.010;  -46.000;  -48.667
1084.043;  -46.640;  -45.670; -107.783
1084.591;  -40.730;  -44.570;  -56.700
1085.138;  -51.010;  -48.680; -122.600
1085.685;  -44.490;  -50.470;  -75.867
1086.233;  -41.300;  -42.920;  -53.433
1086.780;  -36.610;  -39.530;  -20.517
1087.327;  -37.780;  -38.650;  -13.667
1087.874;  -45.810;  -49.620; -107.667
1088.421;  -36.730;  -36.980;    1.300
1088.968;  -50.330;  -57.230; -124.667
1089.515;  -44.240;  -41.090;  -35.117
1090.062;  -47.020;  -53.250; -117.400
1090.609;  -48.650;  -54.700; -124.833
1091.156;  -44.070;  -42.410;  -71.017
1091.702;  -49.340;  -50.350; -103.100
1092.249;  -44.300;  -52.440; -121.583
1092.796;  -37.970;  -41.650;  -52.283
1093.342;  -40.100;  -42.790;  -47.500
1093.889;  -45.630;  -48.880;  -73.833
1094.435;  -39.190;  -42.690;  -21.900
1094.982;  -27.610;  -32.240;   78.350
1095.528;  -40.590;  -46.370;  -39.067
1096.075;  -45.660;  -43.220;  -64.950
1096.621;  -52.270;  -50.540;  -95.717
1097.167;  -30.010;  -36.030;   -2.350
1097.713;  -44.850;  -53.950;  -84.200
1098.259;  -47.720;  -52.740; -116.750
1098.806;  -43.660;  -48.480;  -66.767
1099.352;  -44.220;  -47.210; -105.217
1099.898;  -41.510;  -46.670;  -47.817
1100.444;  -51.850;  -49.920; -123.600

