Time(s),CH1(V),CH2(V)
0.004988,4.582854,0.001140
0.004989,4.582854,0.000256
0.004989,4.582854,-0.001513
0.004989,4.582854,-0.003282
0.004989,4.582854,-0.002840
0.004989,4.582854,-0.001955
0.004989,4.582854,-0.001071
0.004990,4.582854,-0.001071
0.004990,4.582854,-0.000187
0.004990,4.582854,0.000698
0.004990,4.582854,0.000256
0.004990,4.582854,-0.001071
0.004990,4.582854,-0.002398
0.004990,4.582854,-0.001513
0.004991,4.582854,-0.000629
0.004991,4.582854,0.000256
0.004991,4.582854,-0.000187
0.004991,4.582854,-0.001513
0.004991,4.582854,-0.001955
0.004991,4.582854,-0.001955
0.004992,4.582854,-0.001071
0.004992,4.582854,-0.001071
0.004992,4.582854,-0.000629
0.004992,4.582854,0.000256
0.004992,4.582854,0.000698
0.004992,4.582854,0.000256
0.004992,4.582854,-0.001071
0.004993,4.582854,-0.002398
0.004993,4.582854,-0.003282
0.004993,4.582854,-0.003282
0.004993,4.582854,-0.001955
0.004993,4.582854,-0.000187
0.004993,4.582854,0.001582
0.004994,4.582854,0.001140
0.004994,4.582854,0.000698
0.004994,4.582854,-0.000629
0.004994,4.582854,-0.002398
0.004994,4.582854,-0.003724
0.004994,4.582854,-0.003724
0.004995,4.582854,-0.002398
0.004995,4.582854,-0.001071
0.004995,4.582854,0.000698
0.004995,4.582854,0.002024
0.004995,4.582854,0.001582
0.004995,4.582854,-0.001071
0.004995,4.582854,-0.003282
0.004996,4.582854,-0.004166
0.004996,4.582854,-0.003282
0.004996,4.582854,-0.001513
0.004996,4.582854,0.000698
0.004996,4.582854,0.001582
0.004996,4.582854,0.000698
0.004997,4.582854,-0.001071
0.004997,4.582854,-0.003282
0.004997,4.582854,-0.005051
0.004997,4.582854,-0.005051
0.004997,4.582854,-0.001955
0.004997,4.582854,0.001582
0.004998,4.582854,0.002909
0.004998,4.582854,0.002467
0.004998,4.582854,0.000698
0.004998,4.582854,-0.001071
0.004998,4.582854,-0.002840
0.004998,4.582854,-0.004166
0.004998,4.582854,-0.004166
0.004999,4.582854,-0.003282
0.004999,4.582854,-0.001513
0.004999,4.582854,0.000698
0.004999,4.582854,0.002024
0.004999,4.582854,0.001140
0.004999,4.582854,-0.000187
0.005000,4.582854,-0.001071
0.005000,4.582854,-0.001071
0.005000,4.582854,-0.001955
0.005000,4.582854,-0.002840
0.005000,4.542653,-0.009915
0.005000,4.542653,-0.014780
0.005000,4.502452,-0.018317
0.005001,4.502452,-0.021855
0.005001,4.462251,-0.025835
0.005001,4.462251,-0.029372
0.005001,4.422050,-0.033795
0.005001,4.422050,-0.038217
0.005001,4.422050,-0.040428
0.005002,4.381849,-0.039986
0.005002,4.381849,-0.039101
0.005002,4.381849,-0.039543
0.005002,4.341648,-0.040870
0.005002,4.341648,-0.043081
0.005002,4.301447,-0.044408
0.005003,4.301447,-0.047061
0.005003,4.261246,-0.048388
0.005003,4.261246,-0.048388
0.005003,4.261246,-0.047503
0.005003,4.261246,-0.045292
0.005003,4.221045,-0.043965
0.005003,4.221045,-0.044408
0.005004,4.180844,-0.045734
0.005004,4.180844,-0.048388
0.005004,4.180844,-0.049714
0.005004,4.140643,-0.050156
0.005004,4.140643,-0.049714
0.005004,4.140643,-0.047945
0.005005,4.100442,-0.045734
0.005005,4.100442,-0.044408
0.005005,4.100442,-0.044408
0.005005,4.060241,-0.044850
0.005005,4.060241,-0.047061
0.005005,4.020040,-0.049272
0.005005,4.020040,-0.050599
0.005006,4.020040,-0.050156
0.005006,4.020040,-0.048388
0.005006,3.979839,-0.046619
0.005006,3.979839,-0.045734
0.005006,3.979839,-0.045292
0.005006,3.939638,-0.045292
0.005007,3.939638,-0.046177
0.005007,3.899437,-0.047061
0.005007,3.899437,-0.047061
0.005007,3.899437,-0.046619
0.005007,3.899437,-0.045734
0.005007,3.859236,-0.044850
0.005007,3.859236,-0.044850
0.005008,3.859236,-0.045292
0.005008,3.819035,-0.045734
0.005008,3.819035,-0.045734
0.005008,3.819035,-0.046619
0.005008,3.778834,-0.046619
0.005008,3.778834,-0.045734
0.005009,3.778834,-0.045292
0.005009,3.738633,-0.044408
0.005009,3.738633,-0.043081
0.005009,3.738633,-0.042197
0.005009,3.698432,-0.042197
0.005009,3.698432,-0.042197
0.005010,3.698432,-0.042639
0.005010,3.698432,-0.043965
0.005010,3.658231,-0.044850
0.005010,3.658231,-0.045292
0.005010,3.658231,-0.045292
0.005010,3.618030,-0.044408
0.005010,3.618030,-0.042639
0.005011,3.618030,-0.040870
0.005011,3.577829,-0.040428
0.005011,3.577829,-0.041312
0.005011,3.577829,-0.043081
0.005011,3.537628,-0.043965
0.005011,3.537628,-0.043523
0.005012,3.537628,-0.042639
0.005012,3.497427,-0.041312
0.005012,3.497427,-0.040428
0.005012,3.497427,-0.039986
0.005012,3.497427,-0.039543
0.005012,3.457226,-0.040428
0.005012,3.457226,-0.041312
0.005013,3.457226,-0.043523
0.005013,3.417025,-0.044408
0.005013,3.417025,-0.043523
0.005013,3.417025,-0.040870
0.005013,3.417025,-0.039101
0.005013,3.376824,-0.037774
0.005014,3.376824,-0.037332
0.005014,3.376824,-0.037774
0.005014,3.336623,-0.038659
0.005014,3.336623,-0.040428
0.005014,3.336623,-0.042639
0.005014,3.336623,-0.043523
0.005015,3.296422,-0.042639
0.005015,3.296422,-0.039986
0.005015,3.296422,-0.037332
0.005015,3.256221,-0.036448
0.005015,3.256221,-0.038217
0.005015,3.256221,-0.039543
0.005015,3.256221,-0.039986
0.005016,3.216020,-0.040428
0.005016,3.216020,-0.040428
0.005016,3.216020,-0.039986
0.005016,3.216020,-0.038217
0.005016,3.175819,-0.036890
0.005016,3.175819,-0.036448
0.005017,3.175819,-0.037332
0.005017,3.175819,-0.037774
0.005017,3.135618,-0.038659
0.005017,3.135618,-0.039986
0.005017,3.135618,-0.040428
0.005017,3.095417,-0.038659
0.005017,3.095417,-0.036448
0.005018,3.095417,-0.036006
0.005018,3.095417,-0.036448
0.005018,3.055216,-0.036890
0.005018,3.055216,-0.036890
0.005018,3.055216,-0.036890
0.005018,3.055216,-0.036890
0.005019,3.015015,-0.036890
0.005019,3.015015,-0.035563
0.005019,3.015015,-0.034679
0.005019,3.015015,-0.034679
0.005019,2.974814,-0.035563
0.005019,2.974814,-0.037332
0.005020,2.974814,-0.037774
0.005020,2.974814,-0.036448
0.005020,2.934613,-0.035121
0.005020,2.934613,-0.033795
0.005020,2.934613,-0.034237
0.005020,2.934613,-0.035563
0.005020,2.894412,-0.036006
0.005021,2.894412,-0.036448
0.005021,2.894412,-0.036006
0.005021,2.894412,-0.035121
0.005021,2.854211,-0.033352
0.005021,2.854211,-0.031584
0.005021,2.854211,-0.031141
0.005022,2.854211,-0.032468
0.005022,2.814010,-0.035121
0.005022,2.814010,-0.036448
0.005022,2.814010,-0.036448
0.005022,2.814010,-0.036448
0.005022,2.773809,-0.034679
0.005023,2.773809,-0.032468
0.005023,2.773809,-0.030699
0.005023,2.773809,-0.030257
0.005023,2.773809,-0.031141
0.005023,2.733608,-0.032910
0.005023,2.733608,-0.034679
0.005023,2.733608,-0.035563
0.005024,2.733608,-0.034679
0.005024,2.693407,-0.033795
0.005024,2.693407,-0.032026
0.005024,2.693407,-0.031141
0.005024,2.693407,-0.030699
0.005024,2.693407,-0.032026
0.005025,2.653206,-0.033795
0.005025,2.653206,-0.034679
0.005025,2.653206,-0.035121
0.005025,2.653206,-0.033352
0.005025,2.613005,-0.031584
0.005025,2.613005,-0.029372
0.005025,2.613005,-0.028046
0.005026,2.613005,-0.028046
0.005026,2.572804,-0.029815
0.005026,2.572804,-0.032910
0.005026,2.572804,-0.035121
0.005026,2.572804,-0.035563
0.005026,2.572804,-0.034237
0.005027,2.532603,-0.032026
0.005027,2.532603,-0.030257
0.005027,2.532603,-0.028930
0.005027,2.532603,-0.028930
0.005027,2.532603,-0.028488
0.005027,2.492402,-0.029372
0.005027,2.492402,-0.030699
0.005028,2.492402,-0.031141
0.005028,2.492402,-0.030257
0.005028,2.452201,-0.029815
0.005028,2.452201,-0.029372
0.005028,2.452201,-0.028930
0.005028,2.452201,-0.029372
0.005029,2.452201,-0.030257
0.005029,2.412000,-0.031584
0.005029,2.412000,-0.032026
0.005029,2.412000,-0.031584
0.005029,2.412000,-0.029815
0.005029,2.412000,-0.027604
0.005030,2.412000,-0.025393
0.005030,2.412000,-0.024950
0.005030,2.412000,-0.026719
0.005030,2.412000,-0.028930
0.005030,2.371799,-0.030257
0.005030,2.371799,-0.031141
0.005030,2.371799,-0.031141
0.005031,2.371799,-0.031141
0.005031,2.371799,-0.029372
0.005031,2.371799,-0.027161
0.005031,2.331598,-0.025835
0.005031,2.331598,-0.026277
0.005031,2.331598,-0.027604
0.005032,2.331598,-0.028046
0.005032,2.331598,-0.028046
0.005032,2.291397,-0.027161
0.005032,2.291397,-0.026719
0.005032,2.291397,-0.027161
0.005032,2.291397,-0.028488
0.005032,2.291397,-0.029372
0.005033,2.251196,-0.028488
0.005033,2.251196,-0.027604
0.005033,2.251196,-0.026719
0.005033,2.251196,-0.026277
0.005033,2.251196,-0.027161
0.005033,2.251196,-0.027161
0.005034,2.210995,-0.027161
0.005034,2.210995,-0.026277
0.005034,2.210995,-0.026719
0.005034,2.210995,-0.026719
0.005034,2.210995,-0.026277
0.005034,2.170794,-0.025393
0.005035,2.170794,-0.025393
0.005035,2.170794,-0.026719
0.005035,2.170794,-0.027604
0.005035,2.170794,-0.028046
0.005035,2.170794,-0.027161
0.005035,2.130593,-0.026277
0.005035,2.130593,-0.024508
0.005036,2.130593,-0.023624
0.005036,2.130593,-0.024066
0.005036,2.130593,-0.024508
0.005036,2.130593,-0.024950
0.005036,2.090392,-0.026277
0.005036,2.090392,-0.027161
0.005037,2.090392,-0.027161
0.005037,2.090392,-0.025393
0.005037,2.050191,-0.023624
0.005037,2.050191,-0.023182
0.005037,2.050191,-0.024066
0.005037,2.050191,-0.024950
0.005037,2.050191,-0.025835
0.005038,2.050191,-0.025835
0.005038,2.050191,-0.024950
0.005038,2.009990,-0.024508
0.005038,2.009990,-0.023624
0.005038,2.009990,-0.023182
0.005038,2.009990,-0.023624
0.005039,2.009990,-0.024508
0.005039,2.009990,-0.025393
0.005039,2.009990,-0.024950
0.005039,1.969789,-0.023624
0.005039,1.969789,-0.021855
0.005039,1.969789,-0.021413
0.005040,1.969789,-0.022297
0.005040,1.929588,-0.024066
0.005040,1.929588,-0.025393
0.005040,1.929588,-0.026719
0.005040,1.929588,-0.027161
0.005040,1.929588,-0.024950
0.005040,1.929588,-0.022297
0.005041,1.929588,-0.019644
0.005041,1.889387,-0.019202
0.005041,1.889387,-0.020086
0.005041,1.889387,-0.022739
0.005041,1.889387,-0.025393
0.005041,1.889387,-0.026719
0.005042,1.889387,-0.025393
0.005042,1.849186,-0.022739
0.005042,1.849186,-0.020970
0.005042,1.849186,-0.020528
0.005042,1.849186,-0.020970
0.005042,1.849186,-0.022739
0.005043,1.849186,-0.024066
0.005043,1.849186,-0.024950
0.005043,1.808985,-0.024508
0.005043,1.808985,-0.023182
0.005043,1.808985,-0.020528
0.005043,1.808985,-0.018759
0.005043,1.808985,-0.019202
0.005044,1.808985,-0.020970
0.005044,1.768784,-0.023182
0.005044,1.768784,-0.024508
0.005044,1.768784,-0.024066
0.005044,1.768784,-0.022739
0.005044,1.768784,-0.020970
0.005045,1.768784,-0.020086
0.005045,1.728583,-0.020086
0.005045,1.728583,-0.020970
0.005045,1.728583,-0.021413
0.005045,1.728583,-0.021855
0.005045,1.728583,-0.020970
0.005045,1.728583,-0.019644
0.005046,1.728583,-0.018759
0.005046,1.728583,-0.018317
0.005046,1.688382,-0.019644
0.005046,1.688382,-0.021855
0.005046,1.688382,-0.023624
0.005046,1.688382,-0.024066
0.005047,1.688382,-0.023182
0.005047,1.688382,-0.021413
0.005047,1.688382,-0.019202
0.005047,1.648181,-0.017875
0.005047,1.648181,-0.016991
0.005047,1.648181,-0.017433
0.005047,1.648181,-0.019202
0.005048,1.648181,-0.021855
0.005048,1.648181,-0.023182
0.005048,1.607980,-0.021855
0.005048,1.607980,-0.019644
0.005048,1.607980,-0.017875
0.005048,1.607980,-0.017875
0.005049,1.607980,-0.018317
0.005049,1.607980,-0.019202
0.005049,1.607980,-0.020970
0.005049,1.607980,-0.021855
0.005049,1.567779,-0.021413
0.005049,1.567779,-0.019202
0.005050,1.567779,-0.017875
0.005050,1.567779,-0.017433
0.005050,1.567779,-0.017875
0.005050,1.567779,-0.018759
0.005050,1.567779,-0.020970
0.005050,1.527578,-0.022297
0.005050,1.527578,-0.022297
0.005051,1.527578,-0.020970
0.005051,1.527578,-0.017875
0.005051,1.527578,-0.015664
0.005051,1.527578,-0.015222
0.005051,1.527578,-0.016991
0.005051,1.527578,-0.018759
0.005052,1.487377,-0.020528
0.005052,1.487377,-0.021413
0.005052,1.487377,-0.021413
0.005052,1.487377,-0.020528
0.005052,1.487377,-0.018317
0.005052,1.487377,-0.016106
0.005052,1.487377,-0.014337
0.005053,1.447176,-0.015664
0.005053,1.447176,-0.018317
0.005053,1.447176,-0.020970
0.005053,1.447176,-0.021855
0.005053,1.447176,-0.020970
0.005053,1.447176,-0.018317
0.005054,1.447176,-0.016548
0.005054,1.447176,-0.015664
0.005054,1.447176,-0.016106
0.005054,1.406975,-0.016991
0.005054,1.406975,-0.018317
0.005054,1.406975,-0.019202
0.005055,1.406975,-0.018759
0.005055,1.406975,-0.017875
0.005055,1.406975,-0.016106
0.005055,1.406975,-0.015222
0.005055,1.406975,-0.015664
0.005055,1.406975,-0.017433
0.005055,1.366774,-0.018759
0.005056,1.366774,-0.019202
0.005056,1.366774,-0.018759
0.005056,1.366774,-0.017875
0.005056,1.366774,-0.016991
0.005056,1.366774,-0.015222
0.005056,1.366774,-0.013895
0.005057,1.366774,-0.014780
0.005057,1.366774,-0.016548
0.005057,1.326573,-0.017875
0.005057,1.326573,-0.018317
0.005057,1.326573,-0.017875
0.005057,1.326573,-0.016991
0.005057,1.326573,-0.016106
0.005058,1.326573,-0.015664
0.005058,1.326573,-0.015222
0.005058,1.326573,-0.015222
0.005058,1.326573,-0.016548
0.005058,1.286372,-0.017875
0.005058,1.286372,-0.018759
0.005059,1.286372,-0.017875
0.005059,1.286372,-0.016991
0.005059,1.286372,-0.014780
0.005059,1.286372,-0.014337
0.005059,1.286372,-0.014780
0.005059,1.286372,-0.016106
0.005060,1.246171,-0.016991
0.005060,1.246171,-0.016548
0.005060,1.246171,-0.016991
0.005060,1.246171,-0.017433
0.005060,1.246171,-0.016991
0.005060,1.246171,-0.015664
0.005060,1.246171,-0.013895
0.005061,1.246171,-0.014337
0.005061,1.246171,-0.015222
0.005061,1.205970,-0.016991
0.005061,1.205970,-0.016991
0.005061,1.205970,-0.016106
0.005061,1.205970,-0.015222
0.005062,1.205970,-0.015664
0.005062,1.205970,-0.016548
0.005062,1.205970,-0.016106
0.005062,1.205970,-0.014780
0.005062,1.205970,-0.013453
0.005062,1.205970,-0.013895
0.005063,1.165769,-0.015664
0.005063,1.165769,-0.016991
0.005063,1.165769,-0.017433
0.005063,1.165769,-0.017433
0.005063,1.165769,-0.016106
0.005063,1.165769,-0.015222
0.005063,1.165769,-0.013895
0.005064,1.165769,-0.012126
0.005064,1.165769,-0.011684
0.005064,1.165769,-0.012568
0.005064,1.165769,-0.014780
0.005064,1.125568,-0.016548
0.005064,1.125568,-0.017875
0.005065,1.125568,-0.017433
0.005065,1.125568,-0.015664
0.005065,1.125568,-0.013895
0.005065,1.125568,-0.012568
0.005065,1.125568,-0.012126
0.005065,1.125568,-0.012126
0.005065,1.125568,-0.013895
0.005066,1.125568,-0.015664
0.005066,1.085367,-0.016991
0.005066,1.085367,-0.016548
0.005066,1.085367,-0.014780
0.005066,1.085367,-0.012126
0.005066,1.085367,-0.010357
0.005067,1.085367,-0.011242
0.005067,1.085367,-0.012568
0.005067,1.085367,-0.014337
0.005067,1.085367,-0.016106
0.005067,1.085367,-0.017433
0.005067,1.045166,-0.016991
0.005067,1.045166,-0.014337
0.005068,1.045166,-0.010800
0.005068,1.045166,-0.009031
0.005068,1.045166,-0.009915
0.005068,1.045166,-0.013011
0.005068,1.045166,-0.015664
0.005068,1.045166,-0.016106
0.005069,1.045166,-0.015222
0.005069,1.045166,-0.014337
0.005069,1.004965,-0.013453
0.005069,1.004965,-0.012568
0.005069,1.004965,-0.012126
0.005069,1.004965,-0.013011
0.005070,1.004965,-0.014337
0.005070,1.004965,-0.014780
0.005070,1.004965,-0.014780
0.005070,1.004965,-0.013011
0.005070,1.004965,-0.011684
0.005070,1.004965,-0.011242
0.005070,1.004965,-0.012126
0.005071,1.004965,-0.013011
0.005071,1.004965,-0.013895
0.005071,1.004965,-0.013895
0.005071,0.964764,-0.013895
0.005071,0.964764,-0.013895
0.005071,0.964764,-0.013895
0.005072,0.964764,-0.013453
0.005072,0.964764,-0.013011
0.005072,0.964764,-0.013011
0.005072,0.964764,-0.013453
0.005072,0.964764,-0.013453
0.005072,0.964764,-0.012568
0.005072,0.964764,-0.010357
0.005073,0.964764,-0.009473
0.005073,0.924563,-0.010800
0.005073,0.924563,-0.012568
0.005073,0.924563,-0.013895
0.005073,0.924563,-0.015222
0.005073,0.924563,-0.015222
0.005074,0.924563,-0.014780
0.005074,0.924563,-0.013011
0.005074,0.924563,-0.010800
0.005074,0.924563,-0.009031
0.005074,0.924563,-0.009031
0.005074,0.924563,-0.010357
0.005075,0.884362,-0.012568
0.005075,0.884362,-0.013895
0.005075,0.884362,-0.013895
0.005075,0.884362,-0.013011
0.005075,0.884362,-0.012126
0.005075,0.884362,-0.011684
0.005075,0.884362,-0.010800
0.005076,0.884362,-0.009473
0.005076,0.884362,-0.009473
0.005076,0.884362,-0.010800
0.005076,0.884362,-0.013453
0.005076,0.884362,-0.014780
0.005076,0.884362,-0.013453
0.005077,0.884362,-0.011242
0.005077,0.844161,-0.009473
0.005077,0.844161,-0.009031
0.005077,0.844161,-0.009031
0.005077,0.844161,-0.010357
0.005077,0.844161,-0.012126
0.005077,0.844161,-0.013453
0.005078,0.844161,-0.013895
0.005078,0.844161,-0.013453
0.005078,0.844161,-0.011684
0.005078,0.844161,-0.009031
0.005078,0.844161,-0.007704
0.005078,0.844161,-0.008589
0.005079,0.844161,-0.010800
0.005079,0.844161,-0.012568
0.005079,0.844161,-0.013453
0.005079,0.803960,-0.013453
0.005079,0.803960,-0.013011
0.005079,0.803960,-0.011242
0.005080,0.803960,-0.009031
0.005080,0.803960,-0.008146
0.005080,0.803960,-0.008589
0.005080,0.803960,-0.010357
0.005080,0.803960,-0.012126
0.005080,0.803960,-0.013453
0.005080,0.803960,-0.013011
0.005081,0.803960,-0.012568
0.005081,0.803960,-0.010800
0.005081,0.803960,-0.009031
0.005081,0.763759,-0.008589
0.005081,0.763759,-0.009031
0.005081,0.763759,-0.010357
0.005082,0.763759,-0.011684
0.005082,0.763759,-0.012126
0.005082,0.763759,-0.012568
0.005082,0.763759,-0.012126
0.005082,0.763759,-0.011242
0.005082,0.763759,-0.009915
0.005083,0.763759,-0.009915
0.005083,0.763759,-0.009915
0.005083,0.763759,-0.009473
0.005083,0.763759,-0.009031
0.005083,0.763759,-0.009473
0.005083,0.763759,-0.010357
0.005083,0.723558,-0.010800
0.005084,0.723558,-0.011242
0.005084,0.723558,-0.011242
0.005084,0.723558,-0.010800
0.005084,0.723558,-0.009915
0.005084,0.723558,-0.010800
0.005084,0.723558,-0.010800
0.005085,0.723558,-0.009915
0.005085,0.723558,-0.008589
0.005085,0.723558,-0.008589
0.005085,0.723558,-0.009915
0.005085,0.723558,-0.010357
0.005085,0.723558,-0.009915
0.005085,0.723558,-0.009031
0.005086,0.683357,-0.009031
0.005086,0.683357,-0.010800
0.005086,0.683357,-0.011684
0.005086,0.723558,-0.011684
0.005086,0.683357,-0.010357
0.005086,0.683357,-0.009473
0.005087,0.683357,-0.008589
0.005087,0.683357,-0.008146
0.005087,0.683357,-0.007262
0.005087,0.683357,-0.007262
0.005087,0.683357,-0.008146
0.005087,0.683357,-0.009473
0.005088,0.683357,-0.011684
0.005088,0.683357,-0.011242
0.005088,0.683357,-0.009915
0.005088,0.683357,-0.008589
0.005088,0.683357,-0.009473
0.005088,0.683357,-0.009915
0.005088,0.643156,-0.009473
0.005089,0.643156,-0.008589
0.005089,0.643156,-0.007262
0.005089,0.643156,-0.006820
0.005089,0.643156,-0.007704
0.005089,0.643156,-0.009031
0.005089,0.643156,-0.010357
0.005090,0.643156,-0.011242
0.005090,0.643156,-0.011242
0.005090,0.643156,-0.010357
0.005090,0.643156,-0.008589
0.005090,0.643156,-0.006820
0.005090,0.643156,-0.006820
0.005090,0.643156,-0.007262
0.005091,0.643156,-0.008589
0.005091,0.643156,-0.009915
0.005091,0.643156,-0.010800
0.005091,0.602955,-0.010800
0.005091,0.602955,-0.009915
0.005091,0.602955,-0.009031
0.005092,0.602955,-0.007704
0.005092,0.602955,-0.007704
0.005092,0.602955,-0.009031
0.005092,0.602955,-0.010357
0.005092,0.602955,-0.010357
0.005092,0.602955,-0.009473
0.005092,0.602955,-0.008146
0.005093,0.602955,-0.006820
0.005093,0.602955,-0.006378
0.005093,0.602955,-0.006820
0.005093,0.602955,-0.008146
0.005093,0.602955,-0.010800
0.005093,0.602955,-0.012126
0.005094,0.602955,-0.012126
0.005094,0.602955,-0.009915
0.005094,0.602955,-0.007262
0.005094,0.602955,-0.005935
0.005094,0.562754,-0.005493
0.005094,0.562754,-0.006378
0.005095,0.562754,-0.008146
0.005095,0.562754,-0.009915
0.005095,0.562754,-0.011242
0.005095,0.562754,-0.010800
0.005095,0.562754,-0.009031
0.005095,0.562754,-0.007262
0.005095,0.562754,-0.005493
0.005096,0.562754,-0.005935
0.005096,0.562754,-0.007704
0.005096,0.562754,-0.009031
0.005096,0.562754,-0.009473
0.005096,0.562754,-0.010357
0.005096,0.562754,-0.009915
0.005097,0.562754,-0.006820
0.005097,0.562754,-0.005051
0.005097,0.562754,-0.004166
0.005097,0.522553,-0.006378
0.005097,0.522553,-0.008589
0.005097,0.522553,-0.010357
0.005097,0.522553,-0.010800
0.005098,0.522553,-0.009473
0.005098,0.522553,-0.007704
0.005098,0.522553,-0.005935
0.005098,0.522553,-0.005051
0.005098,0.522553,-0.005051
0.005098,0.522553,-0.006378
0.005099,0.522553,-0.008146
0.005099,0.522553,-0.009915
0.005099,0.522553,-0.009915
0.005099,0.522553,-0.009031
0.005099,0.522553,-0.007704
0.005099,0.522553,-0.007262
0.005100,0.522553,-0.006378
0.005100,0.522553,-0.005935
0.005100,0.522553,-0.006820
0.005100,0.522553,-0.007262
0.005100,0.522553,-0.007262
0.005100,0.522553,-0.006820
0.005100,0.522553,-0.006820
0.005101,0.522553,-0.007262
0.005101,0.482352,-0.008146
0.005101,0.482352,-0.009031
0.005101,0.482352,-0.009915
0.005101,0.482352,-0.009473
0.005101,0.482352,-0.008146
0.005102,0.482352,-0.006820
0.005102,0.482352,-0.005493
0.005102,0.482352,-0.005051
0.005102,0.482352,-0.005493
0.005102,0.482352,-0.006820
0.005102,0.482352,-0.007704
0.005102,0.482352,-0.008146
0.005103,0.482352,-0.007704
0.005103,0.482352,-0.007262
0.005103,0.482352,-0.007262
0.005103,0.482352,-0.007262
0.005103,0.482352,-0.007704
0.005103,0.482352,-0.007704
0.005104,0.482352,-0.008146
0.005104,0.482352,-0.007704
0.005104,0.482352,-0.006820
0.005104,0.482352,-0.005935
0.005104,0.442151,-0.005935
0.005104,0.442151,-0.006378
0.005105,0.442151,-0.006378
0.005105,0.442151,-0.006378
0.005105,0.442151,-0.006378
0.005105,0.442151,-0.007262
0.005105,0.442151,-0.008146
0.005105,0.442151,-0.009031
0.005105,0.442151,-0.009031
0.005106,0.442151,-0.008146
0.005106,0.442151,-0.006820
0.005106,0.442151,-0.005493
0.005106,0.442151,-0.004609
0.005106,0.442151,-0.004166
0.005106,0.442151,-0.005051
0.005107,0.442151,-0.006820
0.005107,0.442151,-0.008146
0.005107,0.442151,-0.008589
0.005107,0.442151,-0.007704
0.005107,0.442151,-0.006820
0.005107,0.442151,-0.005935
0.005108,0.442151,-0.006378
0.005108,0.442151,-0.006820
0.005108,0.442151,-0.006820
0.005108,0.401950,-0.006820
0.005108,0.401950,-0.006378
0.005108,0.401950,-0.006378
0.005108,0.442151,-0.005051
0.005109,0.442151,-0.004166
0.005109,0.401950,-0.004609
0.005109,0.401950,-0.006820
0.005109,0.401950,-0.008146
0.005109,0.401950,-0.008589
0.005109,0.401950,-0.007262
0.005110,0.401950,-0.005935
0.005110,0.401950,-0.004609
0.005110,0.401950,-0.004166
0.005110,0.401950,-0.004609
0.005110,0.401950,-0.006378
0.005110,0.401950,-0.008146
0.005110,0.401950,-0.009031
0.005111,0.401950,-0.008146
0.005111,0.401950,-0.006378
0.005111,0.401950,-0.005051
0.005111,0.401950,-0.003724
0.005111,0.401950,-0.003724
0.005111,0.401950,-0.004609
0.005112,0.401950,-0.005935
0.005112,0.401950,-0.006820
0.005112,0.361749,-0.007704
0.005112,0.361749,-0.007704
0.005112,0.361749,-0.007262
0.005112,0.401950,-0.006378
0.005112,0.401950,-0.005493
0.005113,0.401950,-0.005493
0.005113,0.401950,-0.005493
0.005113,0.361749,-0.005935
0.005113,0.361749,-0.005051
0.005113,0.361749,-0.005051
0.005113,0.361749,-0.005051
0.005114,0.361749,-0.005493
0.005114,0.361749,-0.005935
0.005114,0.361749,-0.005935
0.005114,0.361749,-0.005935
0.005114,0.361749,-0.006378
0.005114,0.361749,-0.007262
0.005115,0.361749,-0.007704
0.005115,0.361749,-0.008146
0.005115,0.361749,-0.006820
0.005115,0.361749,-0.004609
0.005115,0.361749,-0.003282
0.005115,0.361749,-0.003282
0.005115,0.361749,-0.003724
0.005116,0.361749,-0.004166
0.005116,0.361749,-0.005935
0.005116,0.361749,-0.007262
0.005116,0.361749,-0.007704
0.005116,0.361749,-0.008146
0.005116,0.361749,-0.007704
0.005117,0.361749,-0.005493
0.005117,0.361749,-0.003724
0.005117,0.361749,-0.004166
0.005117,0.361749,-0.004609
0.005117,0.361749,-0.005493
0.005117,0.321548,-0.005051
0.005117,0.321548,-0.005051
0.005118,0.321548,-0.004609
0.005118,0.321548,-0.004609
0.005118,0.321548,-0.005493
0.005118,0.321548,-0.005493
0.005118,0.321548,-0.005493
0.005118,0.321548,-0.006820
0.005119,0.321548,-0.008146
0.005119,0.321548,-0.007704
0.005119,0.321548,-0.005935
0.005119,0.321548,-0.004166
0.005119,0.321548,-0.002840
0.005119,0.321548,-0.001955
0.005120,0.321548,-0.001955
0.005120,0.321548,-0.002840
0.005120,0.321548,-0.004166
0.005120,0.321548,-0.006378
0.005120,0.321548,-0.008589
0.005120,0.321548,-0.009473
0.005120,0.321548,-0.008146
0.005121,0.321548,-0.005935
0.005121,0.321548,-0.004166
0.005121,0.321548,-0.002840
0.005121,0.321548,-0.002840
0.005121,0.321548,-0.003724
0.005121,0.321548,-0.004609
0.005122,0.321548,-0.005493
0.005122,0.321548,-0.005493
0.005122,0.321548,-0.005493
0.005122,0.321548,-0.004609
0.005122,0.321548,-0.004166
0.005122,0.281347,-0.004609
0.005122,0.281347,-0.005493
0.005123,0.281347,-0.006820
0.005123,0.281347,-0.006378
0.005123,0.281347,-0.005935
0.005123,0.281347,-0.004609
0.005123,0.281347,-0.003724
0.005123,0.281347,-0.003724
0.005124,0.281347,-0.003724
0.005124,0.281347,-0.003724
0.005124,0.281347,-0.005051
0.005124,0.281347,-0.005493
0.005124,0.281347,-0.005493
0.005124,0.281347,-0.005493
0.005125,0.281347,-0.005935
0.005125,0.281347,-0.005493
0.005125,0.281347,-0.004609
0.005125,0.281347,-0.004166
0.005125,0.281347,-0.004609
0.005125,0.281347,-0.004609
0.005125,0.281347,-0.004609
0.005126,0.281347,-0.004609
0.005126,0.281347,-0.005051
0.005126,0.281347,-0.005493
0.005126,0.281347,-0.005935
0.005126,0.281347,-0.005935
0.005126,0.281347,-0.004609
0.005127,0.281347,-0.003724
0.005127,0.281347,-0.003724
0.005127,0.281347,-0.004609
0.005127,0.281347,-0.004609
0.005127,0.281347,-0.005051
0.005127,0.281347,-0.005051
0.005128,0.281347,-0.005935
0.005128,0.241146,-0.006378
0.005128,0.241146,-0.005051
0.005128,0.241146,-0.003724
0.005128,0.281347,-0.003282
0.005128,0.281347,-0.003282
0.005128,0.281347,-0.003724
0.005129,0.241146,-0.004166
0.005129,0.241146,-0.005051
0.005129,0.241146,-0.005935
0.005129,0.241146,-0.005935
0.005129,0.241146,-0.005493
0.005129,0.241146,-0.004166
0.005130,0.241146,-0.002840
0.005130,0.241146,-0.002398
0.005130,0.241146,-0.003724
0.005130,0.241146,-0.005935
0.005130,0.241146,-0.006820
0.005130,0.241146,-0.006378
0.005130,0.241146,-0.005935
0.005131,0.241146,-0.005051
0.005131,0.241146,-0.003282
0.005131,0.241146,-0.002398
0.005131,0.241146,-0.002840
0.005131,0.241146,-0.004166
0.005131,0.241146,-0.005493
0.005132,0.241146,-0.005935
0.005132,0.241146,-0.005935
0.005132,0.241146,-0.004609
0.005132,0.241146,-0.003282
0.005132,0.241146,-0.002840
0.005132,0.241146,-0.003282
0.005132,0.241146,-0.004166
0.005133,0.241146,-0.005051
0.005133,0.241146,-0.005493
0.005133,0.241146,-0.005051
0.005133,0.241146,-0.004609
0.005133,0.241146,-0.002840
0.005133,0.241146,-0.001955
0.005134,0.241146,-0.002398
0.005134,0.241146,-0.004609
0.005134,0.241146,-0.005935
0.005134,0.241146,-0.006378
0.005134,0.241146,-0.005935
0.005134,0.241146,-0.005493
0.005135,0.241146,-0.004166
0.005135,0.241146,-0.001955
0.005135,0.241146,-0.001071
0.005135,0.241146,-0.001513
0.005135,0.241146,-0.003282
0.005135,0.200945,-0.005493
0.005135,0.200945,-0.006378
0.005136,0.200945,-0.006820
0.005136,0.200945,-0.005935
0.005136,0.200945,-0.004166
0.005136,0.200945,-0.001955
0.005136,0.200945,-0.001513
0.005136,0.200945,-0.002398
0.005137,0.200945,-0.004166
0.005137,0.200945,-0.005493
0.005137,0.200945,-0.006378
0.005137,0.200945,-0.005935
0.005137,0.200945,-0.004609
0.005137,0.200945,-0.003282
0.005137,0.200945,-0.002398
0.005138,0.200945,-0.002398
0.005138,0.200945,-0.002840
0.005138,0.200945,-0.004166
0.005138,0.200945,-0.004609
0.005138,0.200945,-0.004609
0.005138,0.200945,-0.003282
0.005139,0.200945,-0.002840
0.005139,0.200945,-0.003282
0.005139,0.200945,-0.005051
0.005139,0.200945,-0.006378
0.005139,0.200945,-0.005935
0.005139,0.200945,-0.004609
0.005140,0.200945,-0.003724
0.005140,0.200945,-0.003282
0.005140,0.200945,-0.002398
0.005140,0.200945,-0.002398
0.005140,0.200945,-0.003282
0.005140,0.200945,-0.004609
0.005140,0.200945,-0.004609
0.005141,0.200945,-0.005051
0.005141,0.200945,-0.004166
0.005141,0.200945,-0.003282
0.005141,0.200945,-0.002398
0.005141,0.200945,-0.002840
0.005141,0.200945,-0.004609
0.005142,0.200945,-0.005935
0.005142,0.160744,-0.006378
0.005142,0.200945,-0.005493
0.005142,0.200945,-0.003724
0.005142,0.200945,-0.001955
0.005142,0.200945,-0.001071
0.005142,0.200945,-0.000629
0.005143,0.200945,-0.001513
0.005143,0.160744,-0.003282
0.005143,0.160744,-0.005493
0.005143,0.160744,-0.006820
0.005143,0.160744,-0.006820
0.005143,0.160744,-0.005935
0.005144,0.160744,-0.004609
0.005144,0.160744,-0.002840
0.005144,0.200945,-0.001955
0.005144,0.160744,-0.001955
0.005144,0.160744,-0.002398
0.005144,0.160744,-0.002840
0.005145,0.160744,-0.002840
0.005145,0.160744,-0.003282
0.005145,0.160744,-0.003724
0.005145,0.160744,-0.004166
0.005145,0.160744,-0.004166
0.005145,0.160744,-0.003724
0.005145,0.160744,-0.003724
0.005146,0.160744,-0.003282
0.005146,0.160744,-0.003282
0.005146,0.160744,-0.003282
0.005146,0.160744,-0.004166
0.005146,0.160744,-0.004609
0.005146,0.160744,-0.004609
0.005147,0.160744,-0.003724
0.005147,0.160744,-0.002398
0.005147,0.160744,-0.001513
0.005147,0.160744,-0.001071
0.005147,0.160744,-0.001955
0.005147,0.160744,-0.003724
0.005148,0.160744,-0.005051
0.005148,0.160744,-0.005935
0.005148,0.160744,-0.005935
0.005148,0.160744,-0.004166
0.005148,0.160744,-0.002398
0.005148,0.160744,-0.001071
0.005148,0.160744,-0.001071
0.005149,0.160744,-0.001513
0.005149,0.160744,-0.003724
0.005149,0.160744,-0.005493
0.005149,0.160744,-0.005935
0.005149,0.160744,-0.005051
0.005149,0.160744,-0.002840
0.005150,0.160744,-0.000629
0.005150,0.160744,0.000256
0.005150,0.160744,-0.001071
0.005150,0.160744,-0.004166
0.005150,0.160744,-0.006820
0.005150,0.160744,-0.007704
0.005150,0.160744,-0.006820
0.005151,0.120543,-0.004166
0.005151,0.160744,-0.001071
0.005151,0.120543,0.000698
0.005151,0.160744,0.000698
0.005151,0.160744,-0.000629
0.005151,0.160744,-0.002398
0.005152,0.160744,-0.005051
0.005152,0.120543,-0.007262
0.005152,0.120543,-0.006820
0.005152,0.120543,-0.004609
0.005152,0.120543,-0.002840
0.005152,0.120543,-0.001955
0.005152,0.160744,-0.001955
0.005153,0.120543,-0.002398
0.005153,0.120543,-0.001955
0.005153,0.120543,-0.003282
0.005153,0.120543,-0.004609
0.005153,0.120543,-0.004609
0.005153,0.120543,-0.004166
0.005154,0.120543,-0.004166
0.005154,0.120543,-0.004166
0.005154,0.120543,-0.003282
0.005154,0.120543,-0.001955
0.005154,0.120543,-0.000187
0.005154,0.120543,-0.000187
0.005155,0.120543,-0.001955
0.005155,0.120543,-0.004609
0.005155,0.120543,-0.006378
0.005155,0.120543,-0.005935
0.005155,0.120543,-0.004166
0.005155,0.120543,-0.002840
0.005155,0.120543,-0.001955
0.005156,0.120543,-0.000629
0.005156,0.120543,-0.000187
0.005156,0.120543,-0.001513
0.005156,0.120543,-0.004609
0.005156,0.120543,-0.007262
0.005156,0.120543,-0.007262
0.005157,0.120543,-0.004609
0.005157,0.120543,-0.001513
0.005157,0.120543,0.000698
0.005157,0.120543,0.001582
0.005157,0.120543,0.000256
0.005157,0.120543,-0.002398
0.005157,0.120543,-0.005493
0.005158,0.120543,-0.007704
0.005158,0.120543,-0.007704
0.005158,0.120543,-0.005493
0.005158,0.120543,-0.001955
0.005158,0.120543,0.001582
0.005158,0.120543,0.002467
0.005159,0.120543,0.001140
0.005159,0.120543,-0.002840
0.005159,0.120543,-0.006820
0.005159,0.120543,-0.008146
0.005159,0.120543,-0.007262
0.005159,0.120543,-0.005051
0.005160,0.120543,-0.002398
0.005160,0.120543,-0.000187
0.005160,0.120543,0.000698
0.005160,0.120543,-0.000187
0.005160,0.120543,-0.001955
0.005160,0.120543,-0.003724
0.005160,0.120543,-0.005051
0.005161,0.120543,-0.005493
0.005161,0.120543,-0.003282
0.005161,0.120543,-0.000187
0.005161,0.120543,0.001140
0.005161,0.120543,0.000256
0.005161,0.120543,-0.002398
0.005162,0.120543,-0.004166
0.005162,0.120543,-0.006378
0.005162,0.120543,-0.007262
0.005162,0.120543,-0.006378
0.005162,0.120543,-0.003724
0.005162,0.080342,0.000256
0.005162,0.080342,0.002467
0.005163,0.080342,0.002467
0.005163,0.080342,-0.000187
0.005163,0.080342,-0.004166
0.005163,0.080342,-0.007704
0.005163,0.120543,-0.008146
0.005163,0.120543,-0.005935
0.005164,0.120543,-0.002840
0.005164,0.120543,-0.000187
0.005164,0.080342,0.002024
0.005164,0.080342,0.001582
0.005164,0.080342,-0.000187
0.005164,0.080342,-0.003724
0.005165,0.080342,-0.006820
0.005165,0.080342,-0.007704
0.005165,0.080342,-0.005493
0.005165,0.080342,-0.002398
0.005165,0.080342,-0.000187
0.005165,0.080342,0.000256
0.005165,0.080342,-0.000187
0.005166,0.080342,-0.001955
0.005166,0.080342,-0.004609
0.005166,0.080342,-0.006820
0.005166,0.080342,-0.006820
0.005166,0.080342,-0.004609
0.005166,0.080342,-0.001955
0.005167,0.080342,0.000256
0.005167,0.080342,0.000698
0.005167,0.080342,-0.000187
0.005167,0.080342,-0.001513
0.005167,0.080342,-0.002840
0.005167,0.080342,-0.004609
0.005168,0.080342,-0.005493
0.005168,0.080342,-0.004609
0.005168,0.080342,-0.002840
0.005168,0.080342,-0.001513
0.005168,0.080342,-0.001513
0.005168,0.080342,-0.002398
0.005168,0.080342,-0.002398
0.005169,0.080342,-0.001955
0.005169,0.080342,-0.002840
0.005169,0.080342,-0.003724
0.005169,0.080342,-0.003724
0.005169,0.080342,-0.002398
0.005169,0.080342,-0.000629
0.005170,0.080342,-0.000629
0.005170,0.080342,-0.001513
0.005170,0.080342,-0.002398
0.005170,0.080342,-0.002840
0.005170,0.080342,-0.003282
0.005170,0.080342,-0.003724
0.005170,0.080342,-0.004166
0.005171,0.080342,-0.002398
0.005171,0.080342,-0.000629
0.005171,0.080342,0.000256
0.005171,0.080342,-0.000187
0.005171,0.080342,-0.001513
0.005171,0.080342,-0.003282
0.005172,0.080342,-0.004609
0.005172,0.080342,-0.005493
0.005172,0.080342,-0.004609
0.005172,0.080342,-0.002840
0.005172,0.080342,-0.001071
0.005172,0.080342,-0.000187
0.005173,0.080342,-0.000629
0.005173,0.080342,-0.001513
0.005173,0.080342,-0.002398
0.005173,0.080342,-0.003282
0.005173,0.080342,-0.004166
0.005173,0.080342,-0.004166
0.005173,0.080342,-0.002840
0.005174,0.080342,-0.000629
0.005174,0.080342,0.000698
0.005174,0.080342,-0.000187
0.005174,0.080342,-0.002398
0.005174,0.080342,-0.004609
0.005174,0.080342,-0.005051
0.005175,0.080342,-0.004609
0.005175,0.080342,-0.003724
0.005175,0.080342,-0.002398
0.005175,0.080342,-0.000629
0.005175,0.080342,-0.000187
0.005175,0.080342,-0.001071
0.005175,0.080342,-0.003282
0.005176,0.080342,-0.004609
0.005176,0.080342,-0.005051
0.005176,0.080342,-0.003282
0.005176,0.040141,-0.001955
0.005176,0.040141,-0.000629
0.005176,0.040141,-0.000187
0.005177,0.080342,-0.000629
0.005177,0.080342,-0.001513
0.005177,0.080342,-0.002840
0.005177,0.080342,-0.004609
0.005177,0.080342,-0.005493
0.005177,0.080342,-0.005051
0.005177,0.040141,-0.003282
0.005178,0.040141,-0.000629
0.005178,0.040141,0.000256
0.005178,0.040141,0.000256
0.005178,0.080342,-0.001071
0.005178,0.080342,-0.002398
0.005178,0.080342,-0.004166
0.005179,0.080342,-0.005051
0.005179,0.040141,-0.004609
0.005179,0.040141,-0.002840
0.005179,0.040141,-0.001071
0.005179,0.080342,-0.000187
0.005179,0.080342,0.000256
0.005180,0.080342,-0.000629
0.005180,0.080342,-0.002398
0.005180,0.040141,-0.004166
0.005180,0.040141,-0.004609
0.005180,0.040141,-0.003724
0.005180,0.040141,-0.002398
0.005180,0.040141,-0.001513
0.005181,0.040141,-0.000629
0.005181,0.040141,-0.000187
0.005181,0.040141,-0.001071
0.005181,0.040141,-0.001955
0.005181,0.040141,-0.003724
0.005181,0.040141,-0.005051
0.005182,0.040141,-0.004609
0.005182,0.040141,-0.001955
0.005182,0.040141,0.000256
0.005182,0.040141,0.001140
0.005182,0.040141,0.000256
0.005182,0.040141,-0.000629
0.005182,0.040141,-0.002398
0.005183,0.040141,-0.004166
0.005183,0.040141,-0.005935
0.005183,0.040141,-0.005493
0.005183,0.040141,-0.003282
0.005183,0.040141,0.000256
0.005183,0.040141,0.002467
0.005184,0.040141,0.002467
0.005184,0.040141,0.000698
0.005184,0.040141,-0.001955
0.005184,0.040141,-0.004609
0.005184,0.040141,-0.006820
0.005184,0.040141,-0.006820
0.005185,0.040141,-0.004609
0.005185,0.040141,-0.001071
0.005185,0.040141,0.001582
0.005185,0.040141,0.002024
0.005185,0.040141,0.000698
0.005185,0.040141,-0.002398
0.005185,0.040141,-0.005493
0.005186,0.040141,-0.005935
0.005186,0.040141,-0.005051
0.005186,0.040141,-0.002398
0.005186,0.040141,-0.000187
0.005186,0.040141,0.001140
0.005186,0.040141,0.000698
0.005187,0.040141,-0.001071
0.005187,0.040141,-0.003282
0.005187,0.040141,-0.004609
0.005187,0.040141,-0.004609
0.005187,0.040141,-0.003724
0.005187,0.040141,-0.001955
0.005187,0.040141,-0.000629
0.005188,0.040141,0.000256
0.005188,0.040141,-0.000629
0.005188,0.040141,-0.002398
0.005188,0.040141,-0.003724
0.005188,0.040141,-0.004609
0.005188,0.040141,-0.004609
0.005189,0.040141,-0.002840
0.005189,0.040141,-0.000187
0.005189,0.040141,0.001582
0.005189,0.040141,0.001140
0.005189,0.040141,-0.001513
0.005189,0.040141,-0.003724
0.005190,0.040141,-0.005493
0.005190,0.040141,-0.005935
0.005190,0.040141,-0.004166
0.005190,0.040141,-0.001955
0.005190,0.040141,0.000698
0.005190,0.040141,0.001582
0.005190,0.040141,0.001140
0.005191,0.040141,-0.000629
0.005191,0.040141,-0.002840
0.005191,0.040141,-0.004609
0.005191,0.040141,-0.005051
0.005191,0.040141,-0.003724
0.005191,0.040141,-0.001955
0.005192,0.040141,-0.000187
0.005192,0.040141,0.000256
0.005192,0.040141,-0.000187
0.005192,0.040141,-0.001071
0.005192,0.040141,-0.002398
0.005192,0.040141,-0.003282
0.005193,0.040141,-0.003724
0.005193,0.040141,-0.003282
0.005193,0.040141,-0.002398
0.005193,0.040141,-0.001071
0.005193,0.040141,-0.000629
0.005193,0.040141,0.000256
0.005193,0.040141,0.000256
0.005194,0.040141,-0.001071
0.005194,0.040141,-0.002840
0.005194,0.040141,-0.004609
0.005194,0.040141,-0.005051
0.005194,0.040141,-0.004166
0.005194,0.040141,-0.002398
0.005195,0.040141,-0.000629
0.005195,0.040141,0.000256
0.005195,0.040141,-0.001071
0.005195,0.040141,-0.001955
0.005195,0.040141,-0.002840
0.005195,0.040141,-0.003282
0.005195,0.040141,-0.003282
0.005196,0.040141,-0.001513
0.005196,0.040141,-0.000187
0.005196,0.040141,-0.000187
0.005196,0.040141,-0.000629
0.005196,0.040141,-0.002398
0.005196,0.040141,-0.003724
0.005197,0.040141,-0.004166
0.005197,0.040141,-0.003282
0.005197,0.040141,-0.001513
0.005197,0.040141,-0.000187
0.005197,0.040141,-0.000187
0.005197,0.040141,-0.000187
0.005197,0.040141,-0.000629
0.005198,0.040141,-0.001071
0.005198,0.040141,-0.002398
0.005198,-0.000060,-0.003282
0.005198,-0.000060,-0.003724
0.005198,-0.000060,-0.003282
0.005198,0.040141,-0.003282
0.005199,0.040141,-0.002840
0.005199,0.040141,-0.001955
0.005199,0.040141,-0.001071
0.005199,0.040141,-0.001071
0.005199,0.040141,-0.000629
0.005199,-0.000060,-0.000629
0.005200,-0.000060,-0.001071
0.005200,-0.000060,-0.001955
0.005200,-0.000060,-0.003282
0.005200,0.040141,-0.003282
0.005200,0.040141,-0.002398
0.005200,0.040141,-0.001513
0.005200,0.040141,-0.001513
0.005201,0.040141,-0.001071
0.005201,0.040141,-0.001513
0.005201,-0.000060,-0.001513
0.005201,-0.000060,-0.001955
0.005201,-0.000060,-0.002398
0.005201,-0.000060,-0.003282
0.005202,0.040141,-0.002840
0.005202,0.040141,-0.001513
0.005202,0.040141,-0.000187
0.005202,0.040141,-0.000187
0.005202,0.040141,-0.001071
0.005202,-0.000060,-0.002398
0.005202,-0.000060,-0.003724
0.005203,-0.000060,-0.002840
0.005203,-0.000060,-0.002398
0.005203,-0.000060,-0.001955
0.005203,-0.000060,-0.001513
0.005203,0.040141,-0.001071
0.005203,0.040141,-0.001513
0.005204,-0.000060,-0.001513
0.005204,-0.000060,-0.001513
0.005204,-0.000060,-0.001513
0.005204,-0.000060,-0.001955
0.005204,-0.000060,-0.001955
0.005204,-0.000060,-0.002398
0.005205,-0.000060,-0.002398
0.005205,-0.000060,-0.002840
0.005205,-0.000060,-0.003282
0.005205,-0.000060,-0.002398
0.005205,-0.000060,-0.001071
0.005205,-0.000060,-0.000187
0.005205,-0.000060,-0.001071
0.005206,-0.000060,-0.001513
0.005206,-0.000060,-0.001955
0.005206,-0.000060,-0.002398
0.005206,-0.000060,-0.002398
0.005206,-0.000060,-0.001955
0.005206,-0.000060,-0.001513
0.005207,-0.000060,-0.001513
0.005207,-0.000060,-0.001513
0.005207,-0.000060,-0.001071
0.005207,-0.000060,-0.001071
0.005207,-0.000060,-0.001513
0.005207,-0.000060,-0.001955
0.005207,-0.000060,-0.002398
0.005208,-0.000060,-0.002840
0.005208,-0.000060,-0.002840
0.005208,-0.000060,-0.002840
0.005208,-0.000060,-0.002398
0.005208,-0.000060,-0.001955
0.005208,-0.000060,-0.001513
0.005209,-0.000060,-0.001071
0.005209,-0.000060,-0.000629
0.005209,-0.000060,-0.001071
0.005209,-0.000060,-0.001955
0.005209,-0.000060,-0.002398
0.005209,-0.000060,-0.001955
0.005210,-0.000060,-0.001955
0.005210,-0.000060,-0.000629
0.005210,-0.000060,0.000256
0.005210,-0.000060,-0.001071
0.005210,-0.000060,-0.002398
0.005210,-0.000060,-0.003724
0.005210,-0.000060,-0.003724
0.005211,-0.000060,-0.003282
0.005211,-0.000060,-0.002398
0.005211,-0.000060,-0.001071
0.005211,-0.000060,0.000256
0.005211,-0.000060,0.000698
0.005211,-0.000060,-0.000187
0.005212,-0.000060,-0.001513
0.005212,-0.000060,-0.003724
0.005212,-0.000060,-0.004609
0.005212,-0.000060,-0.003724
0.005212,-0.000060,-0.001955
0.005212,-0.000060,-0.000187
0.005213,-0.000060,-0.000187
0.005213,-0.000060,-0.000629
0.005213,-0.000060,-0.001071
0.005213,-0.000060,-0.001513
0.005213,-0.000060,-0.001955
0.005213,-0.000060,-0.002398
0.005213,-0.000060,-0.001955
0.005214,-0.000060,-0.001955
0.005214,-0.000060,-0.001513
0.005214,-0.000060,-0.001071
0.005214,-0.000060,-0.001513
0.005214,-0.000060,-0.002840
0.005214,-0.000060,-0.003282
0.005215,-0.000060,-0.003282
0.005215,-0.000060,-0.001955
0.005215,-0.000060,-0.001071
0.005215,-0.000060,-0.001071
0.005215,-0.000060,-0.000629
0.005215,-0.000060,-0.000629
0.005215,-0.000060,-0.001071
0.005216,-0.000060,-0.001955
0.005216,-0.000060,-0.001955
0.005216,-0.000060,-0.001955
0.005216,-0.000060,-0.001071
0.005216,-0.000060,-0.000629
0.005216,-0.000060,-0.001071
0.005217,-0.000060,-0.002398
0.005217,-0.000060,-0.003282
0.005217,-0.000060,-0.003724
0.005217,-0.000060,-0.002840
0.005217,-0.000060,-0.001071
0.005217,-0.000060,-0.000187
0.005217,-0.000060,-0.000187
0.005218,-0.000060,-0.001513
0.005218,-0.000060,-0.002398
0.005218,-0.000060,-0.002398
0.005218,-0.000060,-0.002398
0.005218,-0.000060,-0.002398
0.005218,-0.000060,-0.001513
0.005219,-0.000060,-0.000629
0.005219,-0.000060,-0.000187
0.005219,-0.000060,-0.000187
0.005219,-0.000060,-0.001071
0.005219,-0.000060,-0.001955
0.005219,-0.000060,-0.002398
0.005220,-0.000060,-0.001955
0.005220,-0.000060,-0.001955
0.005220,-0.000060,-0.001513
0.005220,-0.000060,-0.001071
0.005220,-0.000060,-0.000629
0.005220,-0.000060,-0.000629
0.005220,-0.000060,-0.001955
0.005221,-0.000060,-0.002840
0.005221,-0.000060,-0.002840
0.005221,-0.000060,-0.001955
0.005221,-0.000060,-0.001071
0.005221,-0.000060,-0.000629
0.005221,-0.000060,-0.001071
0.005222,-0.000060,-0.001955
0.005222,-0.000060,-0.001513
0.005222,-0.000060,-0.000629
0.005222,-0.000060,-0.000629
0.005222,-0.000060,-0.001513
0.005222,-0.000060,-0.002840
0.005222,-0.000060,-0.002840
0.005223,-0.000060,-0.002398
0.005223,-0.000060,-0.001955
0.005223,-0.000060,-0.001071
0.005223,-0.000060,-0.000187
0.005223,-0.000060,0.000698
0.005223,-0.000060,0.000256
0.005224,-0.000060,-0.001513
0.005224,-0.000060,-0.003724
0.005224,-0.000060,-0.005493
0.005224,-0.000060,-0.004609
0.005224,-0.000060,-0.001955
0.005224,-0.000060,0.000698
0.005225,-0.000060,0.001140
0.005225,-0.000060,-0.000187
0.005225,-0.000060,-0.000629
0.005225,-0.000060,-0.001513
0.005225,-0.000060,-0.002840
0.005225,-0.000060,-0.003724
0.005225,-0.000060,-0.003724
0.005226,-0.000060,-0.002840
0.005226,-0.000060,-0.000629
0.005226,-0.000060,0.000698
0.005226,-0.000060,0.000256
0.005226,-0.000060,-0.001955
0.005226,-0.000060,-0.003282
0.005227,-0.000060,-0.003724
0.005227,-0.000060,-0.002840
0.005227,-0.000060,-0.001513
0.005227,-0.000060,-0.000629
0.005227,-0.000060,-0.000187
0.005227,-0.000060,0.000256
0.005227,-0.000060,0.000256
0.005228,-0.000060,-0.001071
0.005228,-0.000060,-0.002840
0.005228,-0.000060,-0.004166
0.005228,-0.000060,-0.002398
0.005228,-0.000060,-0.001071
0.005228,-0.000060,-0.000629
0.005229,-0.000060,-0.001071
0.005229,-0.000060,-0.002398
0.005229,-0.000060,-0.002398
0.005229,-0.000060,-0.001513
0.005229,-0.000060,-0.000187
0.005229,-0.000060,0.000256
0.005230,-0.000060,0.000256
0.005230,-0.000060,-0.000629
0.005230,-0.000060,-0.002398
0.005230,-0.000060,-0.003724
0.005230,-0.000060,-0.004166
0.005230,-0.000060,-0.003724
0.005230,-0.000060,-0.002398
0.005231,-0.000060,-0.000629
0.005231,-0.000060,0.001140
0.005231,-0.000060,0.002024
0.005231,-0.000060,0.000698
0.005231,-0.000060,-0.001513
0.005231,-0.000060,-0.003282
0.005232,-0.000060,-0.004166
0.005232,-0.000060,-0.003282
0.005232,-0.000060,-0.001513
0.005232,-0.000060,0.000256
0.005232,-0.000060,0.000698
0.005232,-0.000060,0.001140
0.005233,-0.000060,0.000256
0.005233,-0.000060,-0.001955
0.005233,-0.000060,-0.004166
0.005233,-0.000060,-0.004609
0.005233,-0.000060,-0.003282
0.005233,-0.000060,-0.001071
0.005233,-0.000060,0.001140
0.005234,-0.000060,0.001140
0.005234,-0.000060,0.000698
0.005234,-0.000060,0.000256
0.005234,-0.000060,-0.001513
0.005234,-0.000060,-0.003724
0.005234,-0.000060,-0.005051
0.005235,-0.000060,-0.003724
0.005235,-0.000060,-0.001955
0.005235,-0.000060,-0.000629
0.005235,-0.000060,0.000256
0.005235,-0.000060,-0.000629
0.005235,-0.000060,-0.002398
0.005235,-0.000060,-0.003724
0.005236,-0.000060,-0.003282
0.005236,-0.000060,-0.001513
0.005236,-0.000060,0.000256
0.005236,-0.000060,0.001140
0.005236,-0.000060,0.000698
0.005236,-0.000060,-0.000629
0.005237,-0.000060,-0.001955
0.005237,-0.000060,-0.003724
0.005237,-0.000060,-0.004609
0.005237,-0.000060,-0.004166
0.005237,-0.000060,-0.002840
0.005237,-0.000060,-0.000629
0.005237,-0.000060,0.000256
0.005238,-0.000060,0.000256
0.005238,-0.000060,-0.001513
0.005238,-0.000060,-0.002398
0.005238,-0.000060,-0.002840
0.005238,-0.000060,-0.002398
0.005238,-0.000060,-0.001071
0.005239,-0.000060,0.000256
0.005239,-0.000060,0.000256
0.005239,-0.000060,-0.000187
0.005239,-0.000060,-0.001071
0.005239,-0.040261,-0.003282
0.005239,-0.040261,-0.004609
0.005240,-0.000060,-0.004609
0.005240,-0.000060,-0.002840
0.005240,-0.000060,-0.000187
0.005240,-0.000060,0.001140
0.005240,-0.000060,0.001582
0.005240,-0.000060,0.000698
0.005240,-0.000060,-0.000629
0.005241,-0.000060,-0.001955
0.005241,-0.040261,-0.002398
0.005241,-0.040261,-0.002840
0.005241,-0.040261,-0.002398
0.005241,-0.040261,-0.001071
0.005241,-0.000060,-0.001071
0.005242,-0.000060,-0.000629
0.005242,-0.000060,-0.001071
0.005242,-0.000060,-0.001955
0.005242,-0.000060,-0.002398
0.005242,-0.040261,-0.001513
0.005242,-0.040261,-0.000187
0.005242,-0.040261,0.000698
0.005243,-0.000060,0.000256
0.005243,-0.000060,-0.000187
0.005243,-0.000060,-0.000187
0.005243,-0.000060,-0.001513
0.005243,-0.000060,-0.002840
0.005243,-0.040261,-0.003282
0.005244,-0.040261,-0.003282
0.005244,-0.040261,-0.003282
0.005244,-0.040261,-0.002398
0.005244,-0.000060,-0.000629
0.005244,-0.000060,0.000256
0.005244,-0.000060,0.000256
0.005245,-0.000060,-0.000629
0.005245,-0.000060,-0.001955
0.005245,-0.040261,-0.002398
0.005245,-0.040261,-0.001955
0.005245,-0.040261,-0.001513
0.005245,-0.040261,-0.001071
0.005245,-0.000060,-0.000629
0.005246,-0.000060,-0.001071
0.005246,-0.000060,-0.001513
0.005246,-0.000060,-0.002840
0.005246,-0.000060,-0.003282
0.005246,-0.000060,-0.002398
0.005246,-0.040261,-0.000629
0.005247,-0.040261,0.000698
0.005247,-0.040261,0.000256
0.005247,-0.040261,-0.000629
0.005247,-0.040261,-0.001955
0.005247,-0.040261,-0.002840
0.005247,-0.000060,-0.003282
0.005247,-0.040261,-0.002398
0.005248,-0.040261,-0.002398
0.005248,-0.040261,-0.001071
0.005248,-0.040261,-0.000629
0.005248,-0.040261,-0.000629
0.005248,-0.000060,-0.001513
0.005248,-0.000060,-0.002398
0.005249,-0.000060,-0.001955
0.005249,-0.040261,-0.001071
0.005249,-0.040261,-0.000187
0.005249,-0.040261,-0.000187
0.005249,-0.040261,-0.000629
0.005249,-0.040261,-0.001955
0.005250,-0.040261,-0.002398
0.005250,-0.040261,-0.002840
0.005250,-0.040261,-0.002398
0.005250,-0.040261,-0.001071
0.005250,-0.000060,-0.001071
0.005250,-0.040261,-0.001071
0.005250,-0.040261,-0.001955
0.005251,-0.040261,-0.002398
0.005251,-0.040261,-0.002398
0.005251,-0.040261,-0.001955
0.005251,-0.040261,-0.001513
0.005251,-0.040261,-0.000187
0.005251,-0.040261,0.000698
0.005252,-0.040261,-0.000187
0.005252,-0.040261,-0.001071
0.005252,-0.040261,-0.002840
0.005252,-0.040261,-0.003282
0.005252,-0.040261,-0.002840
0.005252,-0.040261,-0.001513
0.005253,-0.040261,-0.000629
0.005253,-0.040261,0.000256
0.005253,-0.040261,-0.000187
0.005253,-0.040261,-0.000629
0.005253,-0.040261,-0.002398
0.005253,-0.040261,-0.004166
0.005253,-0.040261,-0.004166
0.005254,-0.040261,-0.002840
0.005254,-0.040261,-0.000187
0.005254,-0.040261,0.002024
0.005254,-0.040261,0.002909
0.005254,-0.040261,0.001140
0.005254,-0.040261,-0.001955
0.005255,-0.040261,-0.004166
0.005255,-0.040261,-0.005051
0.005255,-0.040261,-0.005051
0.005255,-0.040261,-0.004166
0.005255,-0.040261,-0.001071
0.005255,-0.040261,0.001582
0.005255,-0.040261,0.003351
0.005256,-0.040261,0.002909
0.005256,-0.040261,0.000698
0.005256,-0.040261,-0.002398
0.005256,-0.040261,-0.004166
0.005256,-0.040261,-0.003724
0.005256,-0.040261,-0.003282
0.005257,-0.040261,-0.002398
0.005257,-0.040261,-0.001071
0.005257,-0.040261,0.000256
0.005257,-0.040261,-0.000187
0.005257,-0.040261,-0.000629
0.005257,-0.040261,-0.001955
0.005258,-0.040261,-0.002398
0.005258,-0.040261,-0.002398
0.005258,-0.040261,-0.002398
0.005258,-0.040261,-0.001071
0.005258,-0.040261,-0.000629
0.005258,-0.040261,0.000256
0.005258,-0.040261,0.000256
0.005259,-0.040261,-0.000629
0.005259,-0.040261,-0.001513
0.005259,-0.040261,-0.001955
0.005259,-0.040261,-0.002398
0.005259,-0.040261,-0.002398
0.005259,-0.040261,-0.001955
0.005260,-0.040261,-0.001513
0.005260,-0.040261,-0.001071
0.005260,-0.040261,-0.000187
0.005260,-0.040261,-0.000629
0.005260,-0.040261,-0.001071
0.005260,-0.040261,-0.001513
0.005260,-0.040261,-0.001513
0.005261,-0.040261,-0.001955
0.005261,-0.040261,-0.002840
0.005261,-0.040261,-0.002840
0.005261,-0.040261,-0.001071
0.005261,-0.040261,0.000698
0.005261,-0.040261,0.000698
0.005262,-0.040261,-0.000187
0.005262,-0.040261,-0.001513
0.005262,-0.040261,-0.002840
0.005262,-0.040261,-0.003724
0.005262,-0.040261,-0.003282
0.005262,-0.040261,-0.002398
0.005262,-0.040261,-0.001071
0.005263,-0.040261,0.000698
0.005263,-0.040261,0.001582
0.005263,-0.040261,0.000698
0.005263,-0.040261,-0.001513
0.005263,-0.040261,-0.003282
0.005263,-0.040261,-0.003724
0.005264,-0.040261,-0.002840
0.005264,-0.040261,-0.001955
0.005264,-0.040261,-0.001071
0.005264,-0.040261,0.000256
0.005264,-0.040261,0.000256
0.005264,-0.040261,-0.000187
0.005265,-0.040261,-0.001955
0.005265,-0.040261,-0.003282
0.005265,-0.040261,-0.003282
0.005265,-0.040261,-0.001955
0.005265,-0.040261,0.000256
0.005265,-0.040261,0.001140
0.005265,-0.040261,0.001140
0.005266,-0.040261,-0.001071
0.005266,-0.040261,-0.003282
0.005266,-0.040261,-0.003282
0.005266,-0.040261,-0.002398
0.005266,-0.040261,-0.001513
0.005266,-0.040261,-0.000629
0.005267,-0.040261,-0.000187
0.005267,-0.040261,0.000256
0.005267,-0.040261,0.000256
0.005267,-0.040261,-0.001513
0.005267,-0.040261,-0.002840
0.005267,-0.040261,-0.002840
0.005267,-0.040261,-0.001955
0.005268,-0.040261,-0.000629
0.005268,-0.040261,-0.000187
0.005268,-0.040261,-0.000187
0.005268,-0.040261,-0.000629
0.005268,-0.040261,-0.001071
0.005268,-0.040261,-0.002398
0.005269,-0.040261,-0.003282
0.005269,-0.040261,-0.002398
0.005269,-0.040261,-0.000629
0.005269,-0.040261,0.001140
0.005269,-0.040261,0.001582
0.005269,-0.040261,0.000698
0.005270,-0.040261,-0.001071
0.005270,-0.040261,-0.002398
0.005270,-0.040261,-0.003282
0.005270,-0.040261,-0.003282
0.005270,-0.040261,-0.001955
0.005270,-0.040261,-0.000629
0.005270,-0.040261,-0.000187
0.005271,-0.040261,-0.000187
0.005271,-0.040261,-0.000187
0.005271,-0.040261,-0.000629
0.005271,-0.040261,-0.001513
0.005271,-0.040261,-0.002840
0.005271,-0.040261,-0.003282
0.005272,-0.040261,-0.002840
0.005272,-0.040261,-0.000629
0.005272,-0.040261,0.001140
0.005272,-0.040261,0.000698
0.005272,-0.040261,-0.001071
0.005272,-0.040261,-0.002840
0.005272,-0.040261,-0.003282
0.005273,-0.040261,-0.002840
0.005273,-0.040261,-0.002398
0.005273,-0.040261,-0.001071
0.005273,-0.040261,0.000698
0.005273,-0.040261,0.001140
0.005273,-0.040261,0.000698
0.005274,-0.040261,-0.001513
0.005274,-0.040261,-0.004609
0.005274,-0.040261,-0.005493
0.005274,-0.040261,-0.004609
0.005274,-0.040261,-0.002398
0.005274,-0.040261,0.000256
0.005275,-0.040261,0.002024
0.005275,-0.040261,0.002467
0.005275,-0.040261,0.000256
0.005275,-0.040261,-0.002840
0.005275,-0.040261,-0.003724
0.005275,-0.040261,-0.003724
0.005275,-0.040261,-0.002398
0.005276,-0.040261,-0.000629
0.005276,-0.040261,0.000698
0.005276,-0.040261,0.000698
0.005276,-0.040261,-0.000187
0.005276,-0.040261,-0.001071
0.005276,-0.040261,-0.002840
0.005277,-0.040261,-0.004166
0.005277,-0.040261,-0.003282
0.005277,-0.040261,-0.001513
0.005277,-0.040261,0.000698
0.005277,-0.040261,0.001582
0.005277,-0.040261,0.001140
0.005278,-0.040261,-0.000629
0.005278,-0.040261,-0.002398
0.005278,-0.040261,-0.003282
0.005278,-0.040261,-0.002840
0.005278,-0.040261,-0.001513
0.005278,-0.040261,0.000256
0.005278,-0.040261,0.001140
0.005279,-0.040261,0.000698
0.005279,-0.040261,-0.000629
0.005279,-0.040261,-0.002398
0.005279,-0.040261,-0.003282
0.005279,-0.040261,-0.002398
0.005279,-0.040261,-0.000629
0.005280,-0.040261,0.000698
0.005280,-0.040261,0.001582
0.005280,-0.040261,0.001140
0.005280,-0.040261,-0.001071
0.005280,-0.040261,-0.004166
0.005280,-0.040261,-0.005493
0.005280,-0.040261,-0.005051
0.005281,-0.040261,-0.002398
0.005281,-0.040261,0.001582
0.005281,-0.040261,0.003351
0.005281,-0.040261,0.003351
0.005281,-0.040261,0.000698
0.005281,-0.040261,-0.002398
0.005282,-0.040261,-0.004166
0.005282,-0.040261,-0.005051
0.005282,-0.040261,-0.004166
0.005282,-0.040261,-0.002398
0.005282,-0.040261,0.000256
0.005282,-0.040261,0.002024
0.005282,-0.040261,0.002024
0.005283,-0.040261,-0.000629
0.005283,-0.040261,-0.003724
0.005283,-0.040261,-0.005051
0.005283,-0.040261,-0.003724
0.005283,-0.040261,-0.001071
0.005283,-0.040261,-0.000187
0.005284,-0.040261,0.000256
0.005284,-0.040261,-0.000187
0.005284,-0.040261,-0.000629
0.005284,-0.040261,-0.002398
0.005284,-0.040261,-0.004166
0.005284,-0.040261,-0.003724
0.005285,-0.040261,-0.001955
0.005285,-0.040261,0.000698
0.005285,-0.040261,0.001582
0.005285,-0.040261,0.000698
0.005285,-0.040261,-0.001513
0.005285,-0.040261,-0.003282
0.005285,-0.040261,-0.003724
0.005286,-0.040261,-0.002840
0.005286,-0.040261,-0.001071
0.005286,-0.040261,0.000256
0.005286,-0.040261,0.000698
0.005286,-0.040261,0.000256
0.005286,-0.040261,-0.001513
0.005287,-0.040261,-0.002840
0.005287,-0.040261,-0.003724
0.005287,-0.040261,-0.003724
0.005287,-0.040261,-0.001955
0.005287,-0.040261,0.000256
0.005287,-0.040261,0.001582
0.005287,-0.040261,0.001582
0.005288,-0.040261,0.000256
0.005288,-0.040261,-0.001955
0.005288,-0.040261,-0.003282
0.005288,-0.040261,-0.003282
0.005288,-0.040261,-0.001955
